timestamp,tick,source,dt,motor_tach,steering,throttle,gyro_z,gps_valid,gps_hold_valid,gps_age_sec,sensor_failure_active,sensor_failure_branches,sensor_failure_branch_types,sensor_failure_gps_type,sensor_failure_remaining_steps,sensor_failure_intensity,sensor_failure_imu_intensity,sensor_failure_steer_intensity,sensor_failure_wheel_intensity,sensor_failure_gps_intensity,sensor_failure_gps_xy_intensity,sensor_failure_gps_valid_flip,gps_x,gps_y,gps_theta,accel_x,accel_y,accel_z,robust_x,robust_y,robust_theta,robust_v,ekf_x,ekf_y,ekf_theta,ekf_v,ref_x,ref_y,ref_theta,ref_v,delta_x,delta_y,delta_theta,delta_v,position_error_norm,heading_error,velocity_error,robust_ref_dx,robust_ref_dy,robust_ref_dtheta,robust_ref_dv,robust_ref_position_error_norm,robust_ref_heading_error,robust_ref_velocity_error,ekf_ref_dx,ekf_ref_dy,ekf_ref_dtheta,ekf_ref_dv,ekf_ref_position_error_norm,ekf_ref_heading_error,ekf_ref_velocity_error,pred_mask_mean,pred_mask_min,pred_mask_max,mask_imu_mean,mask_steer_mean,mask_wheel_mean,mask_selected_branch,mask_selected_score,mask_imu_active,mask_steer_active,mask_wheel_active,meas_mask_x,meas_mask_y,meas_mask_psi,meas_mask_v,meas_mask_w,K_norm,K_x_x,K_y_y,K_psi_psi,K_v_v,K_w_w,ekf_K_norm,ekf_K_x_x,ekf_K_y_y,ekf_K_psi_psi,ekf_K_v_v,innov_x,innov_y,innov_psi,innov_v,innov_w,pred_x,pred_y
1777642666.13966,1,model,0.0102782249450684,-0.00132487545541321,0,0,0.038779546263408,0,0,0.182601928710938,0,,,,0,0,0,0,0,0,0,0,2.09902358055115,-0.537983000278473,1.08505821228027,6.94413319084464e-05,0,9.81,2.09901809692383,-0.537993729114532,1.08545649051666,-0.0012829500483349,2.09902358055115,-0.537983000278473,1.08515785850521,-0.000662437727706604,2.09902358055115,-0.537983000278473,1.08515785850521,-0.000662437727706604,-5.48362731933594e-06,-1.07288360595703e-05,0.000298632011448419,-0.000620512320628293,1.20489871678288e-05,0.000298632011448419,-0.000620512320628293,-5.48362731933594e-06,-1.07288360595703e-05,0.000275494618289663,-0.000620512320628293,1.20489871678288e-05,0.000298632011448419,-0.000620512320628293,0,0,0,0,0,0,0,NaN,NaN,NaN,NaN,NaN,NaN,,NaN,0,0,0,0.785889101028442,0.569747924804688,0.857154977321625,0.803655469417572,NaN,0.321722681054115,0.160115167498589,0.227176108360291,0.189827763974667,0.331888476014137,NaN,0.5,NaN,NaN,NaN,0.5,6.19888305664062e-06,1.16825103759766e-05,0,-4.01384895667434e-05,NaN,2.09901738166809,-0.537994682788849
1777642666.14921,2,model,0.0115542411804199,-0.00336435619475246,0,0,-0.00309281803971862,0,0,0.194156169891357,0,,,,0,0,0,0,0,0,0,0,2.09902358055115,-0.537983000278473,1.08505821228027,-6.9441308655229e-05,0,9.81,2.09904766082764,-0.537961065769196,1.08546221256256,-0.00115450820885599,2.09902012953176,-0.537989538721926,1.08514892471382,-0.00200211657838896,2.09902012953176,-0.537989538721926,1.08514892471382,-0.00200211657838896,2.75312958790686e-05,2.84729527300076e-05,0.000313287848736188,0.000847608369532969,3.96065813968596e-05,0.000313287848736188,0.000847608369532969,2.75312958790686e-05,2.84729527300076e-05,0.000380953783501071,0.000847608369532969,3.96065813968596e-05,0.000313287848736188,0.000847608369532969,0,0,0,0,0,0,0,NaN,NaN,NaN,NaN,NaN,NaN,,NaN,0,0,0,0.785748672485352,0.569610357284546,0.856886875629425,0.803368234634399,NaN,0.312939817205417,0.162392660975456,0.2271657371521,0.199742884874344,0.338866898417473,NaN,0.5,NaN,NaN,NaN,0.5,6.67572021484375e-06,1.26361846923828e-05,-3.24249267578125e-05,-0.0021250998834148,NaN,2.09901142120361,-0.538006365299225
1777642666.15936,3,model,0.0106747150421143,-0.00528241439431195,0,0,0.10297811551567,0,0,0.204830884933472,0,,,,0,0,0,0,0,0,0,0,2.09902358055115,-0.537983000278473,1.08505821228027,6.94413260951419e-05,0,9.81,2.09907674789429,-0.537934005260468,1.08542823791504,-0.000974774360656738,2.0990104698861,-0.538007846179749,1.0854237402235,-0.00361076748450461,2.0990104698861,-0.538007846179749,1.0854237402235,-0.00361076748450461,6.62780081919223e-05,7.38409192813094e-05,4.4976915383188e-06,0.00263599312384787,9.92232620417076e-05,4.4976915383188e-06,0.00263599312384787,6.62780081919223e-05,7.38409192813094e-05,0.000166443145346772,0.00263599312384787,9.92232620417076e-05,4.4976915383188e-06,0.00263599312384787,0,0,0,0,0,0,0,NaN,NaN,NaN,NaN,NaN,NaN,,NaN,0,0,0,0.785528969764709,0.569392263889313,0.856509578227997,0.80297269821167,NaN,0.304150954013933,0.165569752454758,0.227955051660538,0.212131393641233,0.348809713125229,NaN,0.5,NaN,NaN,NaN,0.5,5.48362731933594e-06,1.05500221252441e-05,0.000966072082519531,-0.00416423263959587,NaN,2.09904217720032,-0.537971615791321
1777642666.17108,4,model,0.0116660594940186,-0.00181612285040701,0,0,0.132062786472169,1,1,0,0,,,,0,0,0,0,0,0,0,0,2.09902358055115,-0.537983000278473,1.08505821228027,-6.94413130152074e-05,0,9.81,2.09908223152161,-0.537928223609924,1.08542692661285,-0.000916872930247337,2.09900169153616,-0.538024464408038,1.08537100020716,-0.00265136383042827,2.09900169153616,-0.538024464408038,1.08537100020716,-0.00265136383042827,8.05399854417743e-05,9.62407981135449e-05,5.59264056914088e-05,0.00173449090018093,0.000125494942035499,5.59264056914088e-05,0.00173449090018093,8.05399854417743e-05,9.62407981135449e-05,0.000165135316041738,0.00173449090018093,0.000125494942035499,5.59264056914088e-05,0.00173449090018093,0,0,0,0,0,0,0,NaN,NaN,NaN,NaN,NaN,NaN,,NaN,0,0,0,0.806507003307342,0.600085496902466,0.886880111694336,0.815474772453308,NaN,0.300597195978884,0.171467527747154,0.23515934586525,0.234217246562242,0.362513443082571,NaN,0.890369090437218,0.167,0.167,0.583333333042529,0.5,-4.81605529785156e-05,-3.92794609069824e-05,-0.000252246856689453,-0.000874867779202759,NaN,2.09907174110413,-0.537943720817566
1777642666.18318,5,model,0.0116324424743652,-0.00346118335526202,0,0,-0.100175553329833,0,1,0.0116324424743652,0,,,,0,0,0,0,0,0,0,0,2.09902358055115,-0.537983000278473,1.08505821228027,6.94413228251581e-05,0,9.81,2.09912133216858,-0.537890493869781,1.08541715145111,-0.000863274675793946,2.09899709898484,-0.538033170200126,1.0850709645595,-0.00301081901876183,2.09899709898484,-0.538033170200126,1.0850709645595,-0.00301081901876183,0.000124233183738554,0.000142676330344704,0.000346186891610145,0.00214754434296789,0.000189183559493018,0.000346186891610145,0.00214754434296789,0.000124233183738554,0.000142676330344704,0.000495250029648111,0.00214754434296789,0.000189183559493018,0.000346186891610145,0.00214754434296789,0,0,0,0,0,0,0,NaN,NaN,NaN,NaN,NaN,NaN,,NaN,0,0,0,0.809473705291748,0.602269172668457,0.897283864021301,0.825084114074707,NaN,0.296254998623096,0.177493572235107,0.237442650794983,0.254302360616624,0.38372246325016,NaN,0.741674494579387,0.167,0.167,0.405940593804967,0.5,-5.38825988769531e-05,-4.56571578979492e-05,-0.00142502784729004,-0.00257574778515846,NaN,2.09907746315002,-0.537937343120575
1777642666.19379,6,model,0.0111174583435059,-0.00234143675997877,0,0,-0.0833573276705013,0,1,0.0227499008178711,0,,,,0,0,0,0,0,0,0,0,2.09902358055115,-0.537983000278473,1.08505821228027,-6.94413154676952e-05,0,9.81,2.09915471076965,-0.537874460220337,1.08539915084839,-0.000850175565574318,2.09899142134534,-0.538043924955835,1.08491283594465,-0.00262679602675239,2.09899142134534,-0.538043924955835,1.08491283594465,-0.00262679602675239,0.000163289424316648,0.000169464735497615,0.000486314903737295,0.00177662046117807,0.000235333237497254,0.000486314903737295,0.00177662046117807,0.000163289424316648,0.000169464735497615,0.000619627925772403,0.00177662046117807,0.000235333237497254,0.000486314903737295,0.00177662046117807,0,0,0,0,0,0,0,NaN,NaN,NaN,NaN,NaN,NaN,,NaN,0,0,0,0.811308872699738,0.603535950183868,0.903915238380432,0.831387782096863,NaN,0.294091427207709,0.182610511779785,0.236988493204117,0.270505109835416,0.402903204411268,NaN,0.682495513485343,0.167,0.167,0.33596318189208,0.5,-9.34600830078125e-05,-8.42809677124023e-05,-0.00236403942108154,-0.00150645128451288,NaN,2.09911704063416,-0.53789871931076
1777642666.20437,7,model,0.0105764865875244,-9.7170942904187e-05,0,0,0.0329829613911646,0,1,0.0333263874053955,0,,,,0,0,0,0,0,0,0,0,2.09902358055115,-0.537983000278473,1.08505821228027,6.94413209857924e-05,0,9.81,2.09916710853577,-0.537880063056946,1.08537244796753,-0.000827108859084547,2.09898808844562,-0.53805023346026,1.08501770610704,-0.00132103808413376,2.09898808844562,-0.53805023346026,1.08501770610704,-0.00132103808413376,0.000179020090147031,0.000170170403314684,0.00035474186049278,0.000493929225049214,0.000246994248598087,0.00035474186049278,0.000493929225049214,0.000179020090147031,0.000170170403314684,0.000402781959512536,0.000493929225049214,0.000246994248598087,0.00035474186049278,0.000493929225049214,0,0,0,0,0,0,0,NaN,NaN,NaN,NaN,NaN,NaN,,NaN,0,0,0,0.812430214881897,0.604239284992218,0.908208084106445,0.835541868209839,NaN,0.29352170663207,0.186614781618118,0.235254474878311,0.282834317103028,0.418161941319704,NaN,0.65378460894257,0.167,0.167,0.303603314675886,0.5,-0.000127077102661133,-0.000100851058959961,-0.00210738182067871,0.000726500227756333,NaN,2.09915065765381,-0.537882149219513
1777642666.21509,8,model,0.0106291770935059,0.00104284164834412,0,0,-0.0112883799270964,0,1,0.0439555644989014,0,,,,0,0,0,0,0,0,0,0,2.09902358055115,-0.537983000278473,1.08505821228027,-6.94413168472193e-05,0,9.81,2.09917092323303,-0.537891566753387,1.08532893657684,-0.00077772734221071,2.09898983160579,-0.538046931071595,1.08500798247543,-0.000118403842029105,2.09898983160579,-0.538046931071595,1.08500798247543,-0.000118403842029105,0.000181091627242225,0.00015536431820784,0.000320954101408866,-0.000659323500181605,0.000238604796325271,0.000320954101408866,-0.000659323500181605,0.000181091627242225,0.00015536431820784,0.000296551711677297,-0.000659323500181605,0.000238604796325271,0.000320954101408866,-0.000659323500181605,0,0,0,0,0,0,0,NaN,NaN,NaN,NaN,NaN,NaN,,NaN,0,0,0,0.813115727901459,0.604553043842316,0.91089643239975,0.838251852989197,NaN,0.293597327595231,0.189630717039108,0.233249627947807,0.291821995317936,0.429291290789843,NaN,0.638362409961822,0.1934201627707,0.193420162595302,0.28754799193858,0.5,-0.000139474868774414,-9.54270362854004e-05,-0.00217187404632568,0.00184403685852885,NaN,2.09916305541992,-0.537887573242188
1777642666.22463,9,model,0.0101232528686523,0.00221580123538039,0,0,0.0612243171108585,0,1,0.0540788173675537,0,,,,0,0,0,0,0,0,0,0,2.09902358055115,-0.537983000278473,1.08505821228027,6.94413199511493e-05,0,9.81,2.09916663169861,-0.537900567054749,1.08528482913971,-0.000688474567141384,2.09899562666351,-0.538035952064172,1.08513368174636,0.00105046523568392,2.09899562666351,-0.538035952064172,1.08513368174636,0.00105046523568392,0.000171005035100702,0.000135385009423006,0.00015114739334976,-0.0017389398028253,0.000218109657755588,0.00015114739334976,-0.0017389398028253,0.000171005035100702,0.000135385009423006,5.20192287387015e-05,-0.0017389398028253,0.000218109657755588,0.00015114739334976,-0.0017389398028253,0,0,0,0,0,0,0,NaN,NaN,NaN,NaN,NaN,NaN,,NaN,0,0,0,0.81346697807312,0.604615449905396,0.91256697177887,0.839976215362549,NaN,0.293792660784125,0.191838920116425,0.231354632377625,0.298266117960215,0.437160806357861,NaN,0.629557559196394,0.184840309656174,0.184840309546898,0.279304207254587,0.5,-0.000143766403198242,-8.46982002258301e-05,-0.00156950950622559,0.00297032186063007,NaN,2.09916734695435,-0.537898302078247
1777642666.23572,10,model,0.0105652809143066,0.00337782894234782,0,0,0.0538132270325164,0,1,0.0646440982818604,0,,,,0,0,0,0,0,0,0,0,2.09902358055115,-0.537983000278473,1.08505821228027,-6.94413176232016e-05,0,9.81,2.09915685653687,-0.537902891635895,1.08524572849274,-0.000553921912796795,2.09900475264362,-0.53801866165646,1.08521597836992,0.00219779022342724,2.09900475264362,-0.53801866165646,1.08521597836992,0.00219779022342724,0.000152103893241495,0.000115770020565398,2.9750122815031e-05,-0.00275171213622403,0.000191149920222146,2.9750122815031e-05,-0.00275171213622403,0.000152103893241495,0.000115770020565398,-0.000137582406652611,-0.00275171213622403,0.000191149920222146,2.9750122815031e-05,-0.00275171213622403,0,0,0,0,0,0,0,NaN,NaN,NaN,NaN,NaN,NaN,,NaN,0,0,0,0.813608479499817,0.604492783546448,0.913576078414917,0.841062092781067,NaN,0.293934323850265,0.193427532911301,0.229702183008194,0.302850743323565,0.442681604623795,NaN,0.624320516014781,0.179098968543065,0.179098968483484,0.274996773922279,0.5,-0.000139713287353516,-7.61747360229492e-05,-0.000958919525146484,0.00404486298793927,NaN,2.0991632938385,-0.53790682554245
1777642666.24673,11,model,0.0110342502593994,0.00185256788549503,0,0,0.0620809508953435,0,1,0.0756783485412598,0,,,,0,0,0,0,0,0,0,0,2.09902358055115,-0.537983000278473,1.08505821228027,6.94413193691626e-05,0,9.81,2.09914922714233,-0.537903070449829,1.0852290391922,-0.000460603390820324,2.09901708253282,-0.537995298579586,1.08529750031571,0.00198943807757817,2.09901708253282,-0.537995298579586,1.08529750031571,0.00198943807757817,0.000132144609517493,9.22281297566219e-05,-6.84611235124422e-05,-0.00245004146839849,0.000161146597056639,-6.84611235124422e-05,-0.00245004146839849,0.000132144609517493,9.22281297566219e-05,-0.000222196446182862,-0.00245004146839849,0.000161146597056639,-6.84611235124422e-05,-0.00245004146839849,0,0,0,0,0,0,0,NaN,NaN,NaN,NaN,NaN,NaN,,NaN,0,0,0,0.813672018051147,0.60425466299057,0.914183449745178,0.841768109798431,NaN,0.293985574833792,0.194575369358063,0.228323214650154,0.306098447680473,0.446529646962881,NaN,0.621109894431124,0.175211681144805,0.17521168109854,0.272725566365175,0.5,-0.000130414962768555,-7.48634338378906e-05,-0.000246047973632812,0.00238847377477214,NaN,2.09915399551392,-0.537908136844635
1777642666.25778,12,model,0.0110533237457275,0.00295519026385128,0,0,-0.0393902891081669,0,1,0.0867316722869873,0,,,,0,0,0,0,0,0,0,0,2.09902358055115,-0.537983000278473,1.08505821228027,-6.94413180596916e-05,0,9.81,2.09913849830627,-0.537902057170868,1.08519601821899,-0.00033345544943586,2.09902641947724,-0.537977608731972,1.08515323464609,0.00243990554103833,2.09902641947724,-0.537977608731972,1.08515323464609,0.00243990554103833,0.000112078829037632,7.55515611039481e-05,4.27835729013282e-05,-0.00277336099047419,0.000135165462688108,4.27835729013282e-05,-0.00277336099047419,0.000112078829037632,7.55515611039481e-05,-0.00012522546090771,-0.00277336099047419,0.000135165462688108,4.27835729013282e-05,-0.00277336099047419,0,0,0,0,0,0,0,NaN,NaN,NaN,NaN,NaN,NaN,,NaN,0,0,0,0.813588094711304,0.603904604911804,0.91441513299942,0.842172825336456,NaN,0.293961543785188,0.195384979248047,0.227218710780144,0.308357560575008,0.449184769392014,NaN,0.619094005677455,0.172558747932292,0.172558747876719,0.271522273266611,0.5,-0.000123262405395508,-7.55786895751953e-05,-0.000573039054870605,0.00340078698354773,NaN,2.09914684295654,-0.537907421588898
1777642666.26849,13,model,0.0111737251281738,0.0037662574446652,0,0,-0.115353990487391,0,1,0.0979053974151611,0,,,,0,0,0,0,0,0,0,0,2.09902358055115,-0.537983000278473,1.08505821228027,6.9441319041795e-05,0,9.81,2.09912300109863,-0.537909030914307,1.0851194858551,-0.000189121681614779,2.09903614172912,-0.537959194678299,1.08489254885347,0.00306290163937336,2.09903614172912,-0.537959194678299,1.08489254885347,0.00306290163937336,8.68593695164677e-05,5.01637639922503e-05,0.000226937001629679,-0.00325202332098814,0.000100304303450393,0.000226937001629679,-0.00325202332098814,8.68593695164677e-05,5.01637639922503e-05,3.87692710901299e-05,-0.00325202332098814,0.000100304303450393,0.000226937001629679,-0.00325202332098814,0,0,0,0,0,0,0,NaN,NaN,NaN,NaN,NaN,NaN,,NaN,0,0,0,0.81345112323761,0.603547334671021,0.914295387268066,0.8423468708992,NaN,0.293894704146365,0.19595205783844,0.226361610889435,0.309893162488937,0.45099218338728,NaN,0.617803270852933,0.170738397357213,0.170738397273873,0.270883149678165,0.5,-0.000113248825073242,-7.77840614318848e-05,-0.00175094604492188,0.00408873043488711,NaN,2.09913682937622,-0.537905216217041
1777642666.28009,14,model,0.0106241703033447,0.00418626155028386,0,0,0.0589394201551465,0,0,0.108529567718506,0,,,,0,0,0,0,0,0,0,0,2.09902358055115,-0.537983000278473,1.08505821228027,-6.94413183052174e-05,0,9.81,2.09909892082214,-0.537919282913208,1.0850784778595,-5.76281017856672e-05,2.09905086044814,-0.537931320316173,1.0850490944628,0.00357662311308825,2.09905086044814,-0.537931320316173,1.0850490944628,0.00357662311308825,4.80603740053986e-05,1.20374029647374e-05,2.93833966971135e-05,-0.00363425121487391,4.9544915174761e-05,2.93833966971135e-05,-0.00363425121487391,4.80603740053986e-05,1.20374029647374e-05,-0.000192112042094124,-0.00363425121487391,4.9544915174761e-05,2.93833966971135e-05,-0.00363425121487391,0,0,0,0,0,0,0,NaN,NaN,NaN,NaN,NaN,NaN,,NaN,0,0,0,0.804081809520721,0.592678666114807,0.894786012172699,0.828765058517456,NaN,0.290220104770868,0.194304168224335,0.224790894389153,0.305161764413118,0.444925168156624,NaN,0.5,NaN,NaN,NaN,0.5,-9.84668731689453e-05,-7.22408294677734e-05,-0.00120365619659424,0.00436946064291988,NaN,2.09912204742432,-0.537910759449005
1777642666.29095,15,model,0.0110723972320557,0.00132372694816931,0,0,-0.0171729923614722,0,0,0.119601964950562,0,,,,0,0,0,0,0,0,0,0,2.09902358055115,-0.537983000278473,1.08505821228027,6.94413188576508e-05,0,9.81,2.09909057617188,-0.537930727005005,1.08505034446716,-3.06778601952828e-05,2.09906874669445,-0.53789744280792,1.08500155791453,0.00239181007110841,2.09906874669445,-0.53789744280792,1.08500155791453,0.00239181007110841,2.18294774261274e-05,-3.32841970850373e-05,4.87865526359599e-05,-0.00242248793130369,3.98040683887138e-05,4.87865526359599e-05,-0.00242248793130369,2.18294774261274e-05,-3.32841970850373e-05,-9.73959517327305e-05,-0.00242248793130369,3.98040683887138e-05,4.87865526359599e-05,-0.00242248793130369,0,0,0,0,0,0,0,NaN,NaN,NaN,NaN,NaN,NaN,,NaN,0,0,0,0.797916722297668,0.58544909954071,0.881900382041931,0.819800639152527,NaN,0.286785183786698,0.192155361175537,0.223767214417458,0.298579887986183,0.435820573568344,NaN,0.5,NaN,NaN,NaN,0.5,-7.51018524169922e-05,-6.31809234619141e-05,-0.00129878520965576,0.00137947425901075,NaN,2.09909868240356,-0.537919819355011
1777642666.301,16,model,0.0103418827056885,0.000274375135199854,0,0,0.0202038682768924,0,0,0.12994384765625,0,,,,0,0,0,0,0,0,0,0,2.09902358055115,-0.537983000278473,1.08505821228027,-6.94413184433256e-05,0,9.81,2.09909176826477,-0.537935376167297,1.08503127098083,-3.08445196424145e-05,2.09907994350576,-0.53787623532705,1.08505379442351,0.00129663705356504,2.09907994350576,-0.53787623532705,1.08505379442351,0.00129663705356504,1.18247590141785e-05,-5.91408402469407e-05,-2.25234426718401e-05,-0.00132748157320745,6.03113912197153e-05,-2.25234426718401e-05,-0.00132748157320745,1.18247590141785e-05,-5.91408402469407e-05,-0.000105091813467205,-0.00132748157320745,6.03113912197153e-05,-2.25234426718401e-05,-0.00132748157320745,0,0,0,0,0,0,0,NaN,NaN,NaN,NaN,NaN,NaN,,NaN,0,0,0,0.793888521194458,0.580613493919373,0.873521757125854,0.814072990417481,NaN,0.284645840898718,0.189962357282639,0.22331253528595,0.291817832306027,0.426907153427601,NaN,0.5,NaN,NaN,NaN,0.5,-6.67572021484375e-05,-5.19752502441406e-05,-0.00109183788299561,0.000304117826090078,NaN,2.0990903377533,-0.537931025028229
1777642666.31207,17,model,0.0110466480255127,-0.000523178330941217,0,0,0.0833009205527372,0,0,0.140990495681763,0,,,,0,0,0,0,0,0,0,0,2.09902358055115,-0.537983000278473,1.08505821228027,6.94413187540696e-05,0,9.81,2.09909820556641,-0.5379319190979,1.08502507209778,-3.74138035112992e-05,2.09908641149566,-0.53786398034903,1.08528384341089,0.000365619455458227,2.09908641149566,-0.53786398034903,1.08528384341089,0.000365619455458227,1.17940707444752e-05,-6.79387488707883e-05,-0.000258771313115247,-0.000403033258969526,6.8954867144051e-05,-0.000258771313115247,-0.000403033258969526,1.17940707444752e-05,-6.79387488707883e-05,-0.0002964363347963,-0.000403033258969526,6.8954867144051e-05,-0.000258771313115247,-0.000403033258969526,0,0,0,0,0,0,0,NaN,NaN,NaN,NaN,NaN,NaN,,NaN,0,0,0,0.791214776039123,0.577336430549622,0.868030142784119,0.810323858261108,NaN,0.283581469791556,0.187915503978729,0.223234140276909,0.285619649603963,0.419351355731487,NaN,0.5,NaN,NaN,NaN,0.5,-6.79492950439453e-05,-4.73260879516602e-05,-0.000216126441955566,-0.00049333812421537,NaN,2.09909152984619,-0.537935674190521
1777642666.32319,18,model,0.0106484889984131,-0.00313027438193618,0,0,-0.0372453569583506,0,0,0.151638984680176,0,,,,0,0,0,0,0,0,0,0,2.09902358055115,-0.537983000278473,1.08505821228027,-6.94413185210114e-05,0,9.81,2.09913897514343,-0.537904262542725,1.08499705791473,-6.60952500766143e-05,2.09908817148623,-0.537860645145018,1.08518469171744,-0.00138806538518067,2.09908817148623,-0.537860645145018,1.08518469171744,-0.00138806538518067,5.08036571997827e-05,-4.36173977066412e-05,-0.000187633802706699,0.00132197013510406,6.69588602618977e-05,-0.000187633802706699,0.00132197013510406,5.08036571997827e-05,-4.36173977066412e-05,-0.000115911425907276,0.00132197013510406,6.69588602618977e-05,-0.000187633802706699,0.00132197013510406,0,0,0,0,0,0,0,NaN,NaN,NaN,NaN,NaN,NaN,,NaN,0,0,0,0.78930516242981,0.575028121471405,0.864133965969086,0.807540559768677,NaN,0.283325383584897,0.186236172914505,0.223414101600647,0.280407510265708,0.413243482448161,NaN,0.5,NaN,NaN,NaN,0.5,-7.43865966796875e-05,-5.07235527038574e-05,-0.000502705574035645,-0.00309403487699456,NaN,2.09909796714783,-0.537932276725769
1777642666.33325,19,model,0.0110602378845215,0.000611128186688811,0,0,-0.0152874502475102,0,0,0.162699222564697,0,,,,0,0,0,0,0,0,0,0,2.09902358055115,-0.537983000278473,1.08505821228027,6.94413186958052e-05,0,9.81,2.09913539886475,-0.537909150123596,1.08499717712402,-6.39172940282151e-05,2.0990812391259,-0.537873779803809,1.08514242100834,-0.000365842392879111,2.0990812391259,-0.537873779803809,1.08514242100834,-0.000365842392879111,5.41597388474813e-05,-3.53703197868427e-05,-0.000145243884320578,0.000301925098850896,6.46864501565118e-05,-0.000145243884320578,0.000301925098850896,5.41597388474813e-05,-3.53703197868427e-05,-0.000133982699848813,0.000301925098850896,6.46864501565118e-05,-0.000145243884320578,0.000301925098850896,0,0,0,0,0,0,0,NaN,NaN,NaN,NaN,NaN,NaN,,NaN,0,0,0,0.788108062744141,0.573427975177765,0.861734938621521,0.806022012233734,NaN,0.283473010712956,0.184903711080551,0.223696120977402,0.276233391404152,0.408574069477618,NaN,0.5,NaN,NaN,NaN,0.5,-0.000115156173706055,-7.81416893005371e-05,-0.000655412673950195,0.000675068644341081,NaN,2.09913873672485,-0.537904858589172
1777642666.34475,20,model,0.0105025768280029,-0.000591815702075341,0,0,-0.0915015601439889,0,0,0.1732017993927,0,,,,0,0,0,0,0,0,0,0,2.09902358055115,-0.537983000278473,1.08505821228027,-6.94413185647098e-05,0,9.81,2.09915542602539,-0.537897884845734,1.08498346805573,-7.25655627320521e-05,2.09907950072413,-0.537877072405678,1.08490217046702,-0.000473166299313038,2.09907950072413,-0.537877072405678,1.08490217046702,-0.000473166299313038,7.59253012612149e-05,-2.08124400556953e-05,8.12975887045653e-05,0.000400600736580986,7.87261648543745e-05,8.12975887045653e-05,0.000400600736580986,7.59253012612149e-05,-2.08124400556953e-05,0.00010993968671003,0.000400600736580986,7.87261648543745e-05,8.12975887045653e-05,0.000400600736580986,0,0,0,0,0,0,0,NaN,NaN,NaN,NaN,NaN,NaN,,NaN,0,0,0,0.787321698665619,0.572246134281158,0.859987568855286,0.805071914196014,NaN,0.283838920740192,0.183925807476044,0.224007227420807,0.273005593135953,0.405036442540586,NaN,0.5,NaN,NaN,NaN,0.5,-0.000111579895019531,-7.32541084289551e-05,-0.00155234336853027,-0.000529877099324949,NaN,2.09913516044617,-0.537909746170044
1777642666.35438,21,model,0.0106284618377686,0.00349811304782699,0,0,0.0134869546947452,0,0,0.183830261230469,0,,,,0,0,0,0,0,0,0,0,2.09902358055115,-0.537983000278473,1.08505821228027,6.94413186630315e-05,0,9.81,2.0991222858429,-0.537927269935608,1.08500790596008,-7.30383471818641e-05,2.09907722582463,-0.537881380089111,1.08493800686284,0.00151988513811899,2.09907722582463,-0.537881380089111,1.08493800686284,0.00151988513811899,4.50600182677618e-05,-4.58898464972268e-05,6.98990972427538e-05,-0.00159292348530085,6.43139429504215e-05,6.98990972427538e-05,-0.00159292348530085,4.50600182677618e-05,-4.58898464972268e-05,-2.43332486435625e-05,-0.00159292348530085,6.43139429504215e-05,6.98990972427538e-05,-0.00159292348530085,0,0,0,0,0,0,0,NaN,NaN,NaN,NaN,NaN,NaN,,NaN,0,0,0,0.786763381958008,0.571431040763855,0.858874869346619,0.804454827308655,NaN,0.284207632534993,0.18318185210228,0.224288620948792,0.270572634913027,0.402451898995787,NaN,0.5,NaN,NaN,NaN,0.5,-0.000131607055664062,-8.44597816467285e-05,-0.00148391723632812,0.00356840521999402,NaN,2.09915518760681,-0.537898540496826
1777642666.36501,22,model,0.0106182098388672,0.00227789064680046,0,0,-0.0429521553094091,0,0,0.194448471069336,0,,,,0,0,0,0,0,0,0,0,2.09902358055115,-0.537983000278473,1.08505821228027,-6.944131858929e-05,0,9.81,2.0991096496582,-0.53794139623642,1.08502244949341,-8.08181939646602e-05,2.09908452688196,-0.537867556328275,1.08482398811331,0.00187510309684335,2.09908452688196,-0.537867556328275,1.08482398811331,0.00187510309684335,2.51227762393391e-05,-7.38399081449126e-05,0.000198461380094272,-0.00195592129080801,7.79967045510324e-05,0.000198461380094272,-0.00195592129080801,2.51227762393391e-05,-7.38399081449126e-05,8.83869037109245e-05,-0.00195592129080801,7.79967045510324e-05,0.000198461380094272,-0.00195592129080801,0,0,0,0,0,0,0,NaN,NaN,NaN,NaN,NaN,NaN,,NaN,0,0,0,0.786421608924866,0.570761024951935,0.858039450645447,0.804153823852539,NaN,0.284557274095827,0.182669788599014,0.224515804052353,0.268774797242135,0.400564571819268,NaN,0.5,NaN,NaN,NaN,0.5,-9.84668731689453e-05,-5.50746917724609e-05,-0.0019228458404541,0.00234864306548843,NaN,2.09912204742432,-0.5379279255867
1777642666.37515,23,model,0.0105586051940918,0.00465379040877522,0,0,0.0305044941051405,0,0,0.205007076263428,0,,,,0,0,0,0,0,0,0,0,2.09902358055115,-0.537983000278473,1.08505821228027,6.94413186445962e-05,0,9.81,2.09906339645386,-0.537981331348419,1.08506035804749,-9.02165484149009e-05,2.09909348564234,-0.537850594574316,1.08490450934079,0.00323526784351272,2.09909348564234,-0.537850594574316,1.08490450934079,0.00323526784351272,-3.00891884843502e-05,-0.000130736774103246,0.000155848706695494,-0.00332548439192762,0.000134154624842269,0.000155848706695494,-0.00332548439192762,-3.00891884843502e-05,-0.000130736774103246,-4.03803419287172e-05,-0.00332548439192762,0.000134154624842269,0.000155848706695494,-0.00332548439192762,0,0,0,0,0,0,0,NaN,NaN,NaN,NaN,NaN,NaN,,NaN,0,0,0,0.786150050163269,0.570245742797852,0.857488822937012,0.80395724773407,NaN,0.284810253301329,0.182291835546494,0.224676110744476,0.267461403306574,0.399229394132271,NaN,0.5,NaN,NaN,NaN,0.5,-8.55922698974609e-05,-4.0888786315918e-05,-0.00167834758758545,0.00473209343181225,NaN,2.09910917282104,-0.537942111492157
1777642666.38621,24,model,0.0106537342071533,0.00655067687863348,0,0,-0.0315155472919972,1,1,0,0,,,,0,0,0,0,0,0,0,0,2.09902358055115,-0.537983000278473,1.08505821228027,-6.94413186031166e-05,0,9.81,2.09899592399597,-0.53805536031723,1.0851503610611,-6.20167702436447e-05,2.09907918532144,-0.537877672384758,1.08495797853143,0.00484217402925048,2.09907918532144,-0.537877672384758,1.08495797853143,0.00484217402925048,-8.32613254639902e-05,-0.000177687932472193,0.000192382529669466,-0.00490419079949412,0.000196228055242524,0.000192382529669466,-0.00490419079949412,-8.32613254639902e-05,-0.000177687932472193,-9.88748979393267e-05,-0.00490419079949412,0.000196228055242524,0.000192382529669466,-0.00490419079949412,0,0,0,0,0,0,0,NaN,NaN,NaN,NaN,NaN,NaN,,NaN,0,0,0,0.806987476348877,0.60084068775177,0.887555193901062,0.816161596775055,NaN,0.289942557884696,0.184624761343002,0.23020314514637,0.277068810105324,0.405650209262967,NaN,0.91033460389076,0.167,0.167,0.578216243459062,0.5,-3.93390655517578e-05,-8.34465026855469e-07,-0.000182509422302246,0.00663806014927104,NaN,2.0990629196167,-0.537982165813446
1777642666.39717,25,model,0.010462760925293,0.00454030766186619,0,0,-0.0494424952308677,0,1,0.010462760925293,0,,,,0,0,0,0,0,0,0,0,2.09902358055115,-0.537983000278473,1.08505821228027,6.94413186342261e-05,0,9.81,2.09896779060364,-0.538091838359833,1.08519375324249,-5.20794128533453e-06,2.09908036584988,-0.537875436417351,1.08492142418647,0.00461657464583535,2.09908036584988,-0.537875436417351,1.08492142418647,0.00461657464583535,-0.000112575246239199,-0.000216401942482181,0.000272329056019593,-0.00462178258712069,0.000243932340569834,0.000272329056019593,-0.00462178258712069,-0.000112575246239199,-0.000216401942482181,2.39495472713295e-06,-0.00462178258712069,0.000243932340569834,0.000272329056019593,-0.00462178258712069,0,0,0,0,0,0,0,NaN,NaN,NaN,NaN,NaN,NaN,,NaN,0,0,0,0.809866201877594,0.602838397026062,0.897921216487884,0.825706624984741,NaN,0.291945137416021,0.187557458877563,0.232021310329437,0.286569671273232,0.418337743356824,NaN,0.752754877528116,0.167,0.167,0.404129232803328,0.5,2.78949737548828e-05,7.28964805603027e-05,-0.00053560733795166,0.00460041162295965,NaN,2.09899568557739,-0.538055896759033
1777642666.40828,26,model,0.0111136436462402,0.00430356515025399,0,0,0.106386736913669,0,1,0.0215764045715332,0,,,,0,0,0,0,0,0,0,0,2.09902358055115,-0.537983000278473,1.08505821228027,-6.94413186108942e-05,0,9.81,2.09894347190857,-0.53810578584671,1.08523714542389,8.48591007525101e-05,2.09908460722304,-0.537867409610383,1.08516378696975,0.00438445390132068,2.09908460722304,-0.537867409610383,1.08516378696975,0.00438445390132068,-0.000141135314472685,-0.000238376236327054,7.33584541432464e-05,-0.00429959480056817,0.000277024199370298,7.33584541432464e-05,-0.00429959480056817,-0.000141135314472685,-0.000238376236327054,-0.000186757664284658,-0.00429959480056817,0.000277024199370298,7.33584541432464e-05,-0.00429959480056817,0,0,0,0,0,0,0,NaN,NaN,NaN,NaN,NaN,NaN,,NaN,0,0,0,0.811612796783447,0.603929758071899,0.904623579978943,0.831963980197907,NaN,0.29311082657987,0.190143972635269,0.231826611757278,0.294286710709333,0.429704246670008,NaN,0.688801572495328,0.167,0.167,0.335163509527229,0.5,5.57899475097656e-05,0.000108897686004639,0.00056910514831543,0.00430860258575194,NaN,2.09896779060364,-0.538091897964478
1777642666.41911,27,model,0.0112698078155518,0.00483220736533396,0,0,0.109472624480054,0,1,0.032846212387085,0,,,,0,0,0,0,0,0,0,0,2.09902358055115,-0.537983000278473,1.08505821228027,6.94413186283929e-05,0,9.81,2.09892129898071,-0.538097083568573,1.08530139923096,0.000216206448385492,2.09908918813454,-0.537858729243636,1.08534668711009,0.00453550749850695,2.09908918813454,-0.537858729243636,1.08534668711009,0.00453550749850695,-0.000167889153831258,-0.000238354324937462,-4.52878791339373e-05,-0.00431930105012146,0.000291546826754415,-4.52878791339373e-05,-0.00431930105012146,-0.000167889153831258,-0.000238354324937462,-0.000312545310511141,-0.00431930105012146,0.000291546826754415,-4.52878791339373e-05,-0.00431930105012146,0,0,0,0,0,0,0,NaN,NaN,NaN,NaN,NaN,NaN,,NaN,0,0,0,0.812595677375793,0.604418992996216,0.90881325006485,0.835924291610718,NaN,0.293936816684326,0.192163735628128,0.230791055560112,0.300023911088705,0.438216054439545,NaN,0.657560838315457,0.167,0.167,0.30321528268859,0.5,7.96318054199219e-05,0.000121951103210449,0.00184059143066406,0.00475016704149311,NaN,2.09894394874573,-0.538104951381683
1777642666.42974,28,model,0.0106806755065918,0.00240465893016998,0,0,-0.00765252818533214,0,1,0.0435268878936768,0,,,,0,0,0,0,0,0,0,0,2.09902358055115,-0.537983000278473,1.08505821228027,-6.94413186152691e-05,0,9.81,2.09891366958618,-0.538077473640442,1.08535730838776,0.000286389898974448,2.09909381050379,-0.537849962209442,1.08524923164178,0.0033986891737326,2.09909381050379,-0.537849962209442,1.08524923164178,0.0033986891737326,-0.00018014091760632,-0.000227511431000305,0.000108076745975794,-0.00311229927475815,0.000290193386264837,0.000108076745975794,-0.00311229927475815,-0.00018014091760632,-0.000227511431000305,-7.74618003679301e-05,-0.00311229927475815,0.000290193386264837,0.000108076745975794,-0.00311229927475815,0,0,0,0,0,0,0,NaN,NaN,NaN,NaN,NaN,NaN,,NaN,0,0,0,0.813210916519165,0.604574739933014,0.911408495903015,0.838422799110413,NaN,0.294421362150271,0.193688273429871,0.229602509140968,0.304075749158859,0.443946269899607,NaN,0.640722039550526,0.197426122564646,0.1974261219747,0.287350977016377,0.5,0.000101327896118164,0.00011211633682251,0.00189554691314697,0.00219525904685725,NaN,2.09892225265503,-0.538095116615295
1777642666.44218,29,model,0.0118842124938965,0.00106899333131133,0,0,0.143471506454184,0,1,0.0554111003875732,0,,,,0,0,0,0,0,0,0,0,2.09902358055115,-0.537983000278473,1.08505821228027,6.94413186251118e-05,0,9.81,2.09891414642334,-0.538040101528168,1.08546364307404,0.000322679203236476,2.09909542626743,-0.53784690025003,1.08550314715204,0.00217431353804467,2.09909542626743,-0.53784690025003,1.08550314715204,0.00217431353804467,-0.000181279844085225,-0.000193201278138155,-3.95040780016842e-05,-0.0018516343348082,0.000264932285208467,-3.95040780016842e-05,-0.0018516343348082,-0.000181279844085225,-0.000193201278138155,-0.000155078727941568,-0.0018516343348082,0.000264932285208467,-3.95040780016842e-05,-0.0018516343348082,0,0,0,0,0,0,0,NaN,NaN,NaN,NaN,NaN,NaN,,NaN,0,0,0,0.813450825214386,0.604441642761231,0.912963342666626,0.840020322799683,NaN,0.29457772878587,0.194777190685272,0.228434943556786,0.306945668101311,0.447743454575539,NaN,0.631079504297305,0.187493547231637,0.187493546679662,0.279201862569677,0.5,0.000108480453491211,9.1552734375e-05,0.00350475311279297,0.00079263563384302,NaN,2.09891510009766,-0.538074553012848
1777642666.45229,30,model,0.0106570720672607,-0.00200067679725931,0,0,0.0548181467497001,0,1,0.066068172454834,0,,,,0,0,0,0,0,0,0,0,2.09902358055115,-0.537983000278473,1.08505821228027,-6.944131861773e-05,0,9.81,2.09892773628235,-0.538001120090485,1.08560287952423,0.000256705505307764,2.09909101274341,-0.537855260344882,1.08548671018413,5.26678422572481e-05,2.09909101274341,-0.537855260344882,1.08548671018413,5.26678422572481e-05,-0.000163276461062623,-0.000145859745602661,0.000116169340103056,0.000204037663050516,0.000218938959813933,0.000116169340103056,0.000204037663050516,-0.000163276461062623,-0.000145859745602661,0.000134495702816918,0.000204037663050516,0.000218938959813933,0.000116169340103056,0.000204037663050516,0,0,0,0,0,0,0,NaN,NaN,NaN,NaN,NaN,NaN,,NaN,0,0,0,0.813451480865478,0.604159533977509,0.913714361190796,0.840750598907471,NaN,0.294526256620602,0.195541173219681,0.227406122684479,0.308959865510464,0.450199382007122,NaN,0.625324707249686,0.180883042627042,0.180883042190175,0.274942974439859,0.5,0.000107765197753906,5.41806221008301e-05,0.00415694713592529,-0.00231321968021803,NaN,2.09891581535339,-0.538037180900574
1777642666.46363,31,model,0.0105428695678711,0.00073457463977531,0,0,0.0211259092894285,0,1,0.0766110420227051,0,,,,0,0,0,0,0,0,0,0,2.09902358055115,-0.537983000278473,1.08505821228027,6.94413186232662e-05,0,9.81,2.09893703460693,-0.537953197956085,1.0857458114624,0.000292037060717121,2.09907932661776,-0.537877406754513,1.08541035767068,0.000392802886070194,2.09907932661776,-0.537877406754513,1.08541035767068,0.000392802886070194,-0.00014229201082161,-7.57912015720841e-05,0.000335453791724838,-0.000100765825353073,0.000161218245181485,0.000335453791724838,-0.000100765825353073,-0.00014229201082161,-7.57912015720841e-05,0.000346044406521978,-0.000100765825353073,0.000161218245181485,0.000335453791724838,-0.000100765825353073,0,0,0,0,0,0,0,NaN,NaN,NaN,NaN,NaN,NaN,,NaN,0,0,0,0.81333829164505,0.603756725788117,0.914184403419495,0.841361308097839,NaN,0.294360486018229,0.196054831147194,0.226549112200737,0.310364694833756,0.451806800067425,NaN,0.62178312822163,0.176423560224011,0.176423559946205,0.272697109164409,0.5,9.46521759033203e-05,1.57952308654785e-05,0.00436806678771973,0.000485846510855481,NaN,2.09892892837524,-0.537998795509338
1777642666.47425,32,model,0.010897159576416,-0.00183390183579511,0,0,-0.0283305627935844,0,1,0.0875082015991211,0,,,,0,0,0,0,0,0,0,0,2.09902358055115,-0.537983000278473,1.08505821228027,-6.94413186191142e-05,0,9.81,2.09895539283752,-0.537914752960205,1.08589160442352,0.000229546465561725,2.09907126027762,-0.537892687153104,1.08525852211027,-0.000726857963607175,2.09907126027762,-0.537892687153104,1.08525852211027,-0.000726857963607175,-0.000115867440097617,-2.20658071007351e-05,0.000633082313253652,0.000956404429168901,0.000117949834750972,0.000633082313253652,0.000956404429168901,-0.000115867440097617,-2.20658071007351e-05,0.00072341270819091,0.000956404429168901,0.000117949834750972,0.000633082313253652,0.000956404429168901,0,0,0,0,0,0,0,NaN,NaN,NaN,NaN,NaN,NaN,,NaN,0,0,0,0.813238096237183,0.603386580944061,0.914301347732544,0.841601276397705,NaN,0.294149575465381,0.196413293480873,0.225860335826874,0.311327324748039,0.452810497581959,NaN,0.619550394971745,0.173387640670216,0.173387640479741,0.2715071712878,0.5,8.51154327392578e-05,-3.25441360473633e-05,0.00405716896057129,-0.00211655857856385,NaN,2.09893846511841,-0.537950456142426
1777642666.48528,33,model,0.0110657215118408,-0.00287260299506581,0,0,0.0621413842640049,0,1,0.0985739231109619,0,,,,0,0,0,0,0,0,0,0,2.09902358055115,-0.537983000278473,1.08505821228027,6.9441318622228e-05,0,9.81,2.09897994995117,-0.537874162197113,1.08606362342834,0.000135363443405367,2.09906008448167,-0.537913861897496,1.08532960688249,-0.00178787643243931,2.09906008448167,-0.537913861897496,1.08532960688249,-0.00178787643243931,-8.01345305019296e-05,3.9699700382978e-05,0.000734016545859362,0.00192323987584468,8.94293530629788e-05,0.000734016545859362,0.00192323987584468,-8.01345305019296e-05,3.9699700382978e-05,0.000888709884087401,0.00192323987584468,8.94293530629788e-05,0.000734016545859362,0.00192323987584468,0,0,0,0,0,0,0,NaN,NaN,NaN,NaN,NaN,NaN,,NaN,0,0,0,0.813027989864349,0.602956295013428,0.914252889156342,0.841705465316773,NaN,0.293901977505744,0.196643501520157,0.2253037327528,0.31198536747694,0.453409822285175,NaN,0.618115040146935,0.171308014394156,0.171308014274844,0.270875121225834,0.5,6.69956207275391e-05,-7.03930854797363e-05,0.00461387634277344,-0.00309466231556144,NaN,2.09895658493042,-0.537912607192993
1777642666.49589,34,model,0.0111184120178223,-0.000927595121855593,0,0,0.0116507203269063,0,1,0.109692335128784,0,,,,0,0,0,0,0,0,0,0,2.09902358055115,-0.537983000278473,1.08505821228027,-6.94413186198928e-05,0,9.81,2.09899997711182,-0.537827789783478,1.08623147010803,0.000119812189950608,2.09904643546962,-0.537939723354356,1.08527980721238,-0.0013284391505898,2.09904643546962,-0.537939723354356,1.08527980721238,-0.0013284391505898,-4.6458357806145e-05,0.000111933570878242,0.000951662895650962,0.00144825134054041,0.00012119201004851,0.000951662895650962,0.00144825134054041,-4.6458357806145e-05,0.000111933570878242,0.00108809757387023,0.00144825134054041,0.00012119201004851,0.000951662895650962,0.00144825134054041,0,0,0,0,0,0,0,NaN,NaN,NaN,NaN,NaN,NaN,,NaN,0,0,0,0.812808287143707,0.602493166923523,0.914163899421692,0.841843509674072,NaN,0.293665236595847,0.196796298027039,0.224861719608307,0.312429999500513,0.453782429546118,NaN,0.617177439579365,0.169877406345184,0.169877406262592,0.270538953900177,0.5,4.29153442382812e-05,-0.000110149383544922,0.0047067403793335,-0.0010585223644739,NaN,2.09898066520691,-0.537872850894928
1777642666.50694,35,model,0.0105390548706055,0.000797364145792893,0,0,0.0174583480704429,0,1,0.12023138999939,0,,,,0,0,0,0,0,0,0,0,2.09902358055115,-0.537983000278473,1.08505821228027,6.94413186216441e-05,0,9.81,2.09901571273804,-0.537775695323944,1.08639550209045,0.000170502418768592,2.09903731354399,-0.537957003654389,1.08525345923286,-0.000244903632698648,2.09903731354399,-0.537957003654389,1.08525345923286,-0.000244903632698648,-2.16008059483741e-05,0.000181308330444718,0.00114204285759634,0.00041540605146724,0.000182590540571713,0.00114204285759634,0.00041540605146724,-2.16008059483741e-05,0.000181308330444718,0.00122463053854442,0.00041540605146724,0.000182590540571713,0.00114204285759634,0.00041540605146724,0,0,0,0,0,0,0,NaN,NaN,NaN,NaN,NaN,NaN,,NaN,0,0,0,0.8126269698143,0.602060258388519,0.914041173458099,0.841986441612244,NaN,0.293455287090219,0.196903645992279,0.224511467814446,0.312726409673691,0.454014421999455,NaN,0.61655695502733,0.168890397162759,0.168890397095942,0.270360030876806,0.5,2.31266021728516e-05,-0.000156283378601074,0.00481224060058594,0.000681273915688507,NaN,2.09900045394897,-0.537826716899872
1777642666.51747,36,model,0.0110342502593994,0.0033701540835014,0,0,0.0577185519053115,0,0,0.131265640258789,0,,,,0,0,0,0,0,0,0,0,2.09902358055115,-0.537983000278473,1.08505821228027,-6.94413186203307e-05,0,9.81,2.09900331497192,-0.537731170654297,1.08654975891113,0.000299950421322137,2.09903609360063,-0.537959316015699,1.08541267946944,0.00156660790535942,2.09903609360063,-0.537959316015699,1.08541267946944,0.00156660790535942,-3.27786287015464e-05,0.000228145361402587,0.00113707944169139,-0.00126665748403729,0.000230488057020469,0.00113707944169139,-0.00126665748403729,-3.27786287015464e-05,0.000228145361402587,0.00111622282815771,-0.00126665748403729,0.000230488057020469,0.00113707944169139,-0.00126665748403729,0,0,0,0,0,0,0,NaN,NaN,NaN,NaN,NaN,NaN,,NaN,0,0,0,0.803281736373901,0.591240465641022,0.894316506385803,0.828169369697571,NaN,0.28962416803564,0.194926664233208,0.22336683511734,0.307088048696518,0.446925235539675,NaN,0.5,NaN,NaN,NaN,0.5,6.91413879394531e-06,-0.000208914279937744,0.0053410530090332,0.00320519726665225,NaN,2.09901666641235,-0.537774085998535
1777642666.52902,37,model,0.0105438232421875,0.00180668770043663,0,0,-0.0961972078567817,0,0,0.141809463500977,0,,,,0,0,0,0,0,0,0,0,2.09902358055115,-0.537983000278473,1.08505821228027,6.94413186213156e-05,0,9.81,2.09898591041565,-0.537710309028625,1.0866596698761,0.000354764546500519,2.09904356233995,-0.537945160891429,1.08515910788043,0.0016623035874842,2.09904356233995,-0.537945160891429,1.08515910788043,0.0016623035874842,-5.76519242980744e-05,0.000234851862803254,0.00150056199566606,-0.00130753904098368,0.00024182460966045,0.00150056199566606,-0.00130753904098368,-5.76519242980744e-05,0.000234851862803254,0.00149537138922919,-0.00130753904098368,0.00024182460966045,0.00150056199566606,-0.00130753904098368,0,0,0,0,0,0,0,NaN,NaN,NaN,NaN,NaN,NaN,,NaN,0,0,0,0.797197413444519,0.584038972854614,0.881368947029114,0.819226825237274,NaN,0.286106045124475,0.192551672458649,0.222677656412125,0.299849697887898,0.43707667440176,NaN,0.5,NaN,NaN,NaN,0.5,1.88350677490234e-05,-0.000254571437835693,0.00439846515655518,0.00151605939026922,NaN,2.0990047454834,-0.537728428840637
1777642666.53911,38,model,0.0106039047241211,0.000503692412816786,0,0,0.0371527205523918,0,0,0.152413368225098,0,,,,0,0,0,0,0,0,0,0,2.09902358055115,-0.537983000278473,1.08505821228027,-6.94413186205771e-05,0,9.81,2.09896969795227,-0.537696182727814,1.08675026893616,0.000373963819583878,2.09905153217736,-0.537930058898617,1.08525759885768,0.00105701953367014,2.09905153217736,-0.537930058898617,1.08525759885768,0.00105701953367014,-8.18342250865634e-05,0.000233876170803504,0.00149267007847964,-0.000683055714086262,0.000247779950087226,0.00149267007847964,-0.000683055714086262,-8.18342250865634e-05,0.000233876170803504,0.0015253974947513,-0.000683055714086262,0.000247779950087226,0.00149267007847964,-0.000683055714086262,0,0,0,0,0,0,0,NaN,NaN,NaN,NaN,NaN,NaN,,NaN,0,0,0,0.793219578266144,0.579263925552368,0.872922074794769,0.8134521484375,NaN,0.2839478805115,0.190196022391319,0.222466059923172,0.292622256591916,0.427655920013785,NaN,0.5,NaN,NaN,NaN,0.5,3.60012054443359e-05,-0.000275909900665283,0.00466644763946533,0.000160016381414607,NaN,2.0989875793457,-0.537707090377808
1777642666.55102,39,model,0.0113117694854736,0.00173590429327182,0,0,-0.0030102445535144,0,0,0.163725137710571,0,,,,0,0,0,0,0,0,0,0,2.09902358055115,-0.537983000278473,1.08505821228027,6.94413186211308e-05,0,9.81,2.09893107414246,-0.537702262401581,1.08682727813721,0.000406290113460273,2.09905692620835,-0.537919836670438,1.08524908605956,0.00137884008736368,2.09905692620835,-0.537919836670438,1.08524908605956,0.00137884008736368,-0.000125852065891774,0.000217574268857601,0.00157819207765009,-0.000972549973903406,0.0002513509597319,0.00157819207765009,-0.000972549973903406,-0.000125852065891774,0.000217574268857601,0.00159743485844309,-0.000972549973903406,0.0002513509597319,0.00157819207765009,-0.000972549973903406,0,0,0,0,0,0,0,NaN,NaN,NaN,NaN,NaN,NaN,,NaN,0,0,0,0.790584516525269,0.576019644737244,0.867381227016449,0.809723103046417,NaN,0.28292375358796,0.188038021326065,0.222577222585678,0.286090474143624,0.419740780815482,NaN,0.5,NaN,NaN,NaN,0.5,5.19752502441406e-05,-0.000290453433990479,0.00466501712799072,0.0013744093303103,NaN,2.0989716053009,-0.537692546844482
1777642666.56117,40,model,0.0107183456420898,0.00109973574094005,0,0,0.113253986107298,0,0,0.174443483352661,0,,,,0,0,0,0,0,0,0,0,2.09902358055115,-0.537983000278473,1.08505821228027,-6.94413186207156e-05,0,9.81,2.09888577461243,-0.537714779376984,1.08689630031586,0.000432763859862462,2.09906360357589,-0.537907177868349,1.08555255990167,0.00121750685416943,2.09906360357589,-0.537907177868349,1.08555255990167,0.00121750685416943,-0.000177828963466631,0.000192398491364987,0.00134374041418894,-0.00078474299430697,0.000261992976484369,0.00134374041418894,-0.00078474299430697,-0.000177828963466631,0.000192398491364987,0.001362782740365,-0.00078474299430697,0.000261992976484369,0.00134374041418894,-0.00078474299430697,0,0,0,0,0,0,0,NaN,NaN,NaN,NaN,NaN,NaN,,NaN,0,0,0,0.788836193084717,0.573792457580566,0.863674354553223,0.807287001609802,NaN,0.282674870952191,0.186260938644409,0.222872012257576,0.280666544601321,0.413450208120048,NaN,0.5,NaN,NaN,NaN,0.5,9.05990600585938e-05,-0.000284492969512939,0.00579154491424561,0.000706281658494845,NaN,2.09893298149109,-0.53769850730896
1777642666.5717,41,model,0.0100514888763428,6.11645487846315e-06,0,0,-0.109584090954267,0,0,0.184494972229004,0,,,,0,0,0,0,0,0,0,0,2.09902358055115,-0.537983000278473,1.08505821228027,6.94413186210272e-05,0,9.81,2.09885549545288,-0.537722706794739,1.08693301677704,0.000445293757366017,2.09906914389118,-0.537896674306527,1.08527718908386,0.000593775698695466,2.09906914389118,-0.537896674306527,1.08527718908386,0.000593775698695466,-0.000213648438294634,0.000173967511787776,0.00165582769318284,-0.00014848194132945,0.000275518330321897,0.00165582769318284,-0.00014848194132945,-0.000213648438294634,0.000173967511787776,0.00172950957605491,-0.00014848194132945,0.000275518330321897,0.00165582769318284,-0.00014848194132945,0,0,0,0,0,0,0,NaN,NaN,NaN,NaN,NaN,NaN,,NaN,0,0,0,0.787631940841675,0.572163462638855,0.861115527153015,0.805643999576569,NaN,0.282901797865527,0.184913039207458,0.223251887559891,0.276354178354144,0.408590365760028,NaN,0.5,NaN,NaN,NaN,0.5,0.000135898590087891,-0.000271975994110107,0.00489330291748047,-0.000413825624946185,NaN,2.09888768196106,-0.537711024284363
1777642666.58123,42,model,0.0110378265380859,0.00420192105715583,0,0,0.0429102470233253,0,0,0.19553279876709,0,,,,0,0,0,0,0,0,0,0,2.09902358055115,-0.537983000278473,1.08505821228027,-6.94413186207932e-05,0,9.81,2.09876298904419,-0.537778317928314,1.08699572086334,0.000472997489850968,2.09907210258569,-0.537891066156136,1.08539559804969,0.00238818912949737,2.09907210258569,-0.537891066156136,1.08539559804969,0.00238818912949737,-0.000309113541500317,0.000112748227821924,0.00160012281364885,-0.0019151916396464,0.000329033956326475,0.00160012281364885,-0.0019151916396464,-0.000309113541500317,0.000112748227821924,0.00156263020998746,-0.0019151916396464,0.000329033956326475,0.00160012281364885,-0.0019151916396464,0,0,0,0,0,0,0,NaN,NaN,NaN,NaN,NaN,NaN,,NaN,0,0,0,0.786787223815918,0.571056962013245,0.859446001052856,0.804541552066803,NaN,0.283273355257778,0.183873876929283,0.22362894654274,0.273039629250765,0.404966444335878,NaN,0.5,NaN,NaN,NaN,0.5,0.000165939331054688,-0.000264525413513184,0.00530743598937988,0.00377111503621563,NaN,2.09885764122009,-0.53771847486496
1777642666.59384,43,model,0.0110361576080322,0.00194939439094231,0,0,-0.0178343494136458,0,0,0.206568956375122,0,,,,0,0,0,0,0,0,0,0,2.09902358055115,-0.537983000278473,1.08505821228027,6.94413186209689e-05,0,9.81,2.09869885444641,-0.537815034389496,1.08703076839447,0.000488930323626846,2.09908400005181,-0.537868512839648,1.08534639237695,0.00212994775864595,2.09908400005181,-0.537868512839648,1.08534639237695,0.00212994775864595,-0.000385145605397152,5.34784501518004e-05,0.00168437601751847,-0.0016410174350191,0.000388840689727011,0.00168437601751847,-0.0016410174350191,-0.000385145605397152,5.34784501518004e-05,0.00166791691020518,-0.0016410174350191,0.000388840689727011,0.00168437601751847,-0.0016410174350191,0,0,0,0,0,0,0,NaN,NaN,NaN,NaN,NaN,NaN,,NaN,0,0,0,0.786251258850098,0.570185780525208,0.858254742622375,0.803879284858704,NaN,0.283694836777316,0.183148354291916,0.223952957391739,0.270561481859535,0.402290358999744,NaN,0.5,NaN,NaN,NaN,0.5,0.000258207321166992,-0.000209152698516846,0.0051887035369873,0.00149178350693546,NaN,2.09876537322998,-0.537773847579956
1777642666.60416,44,model,0.0108933448791504,0.00115565617974664,0,0,-0.100530313473635,1,1,0,0,,,,0,0,0,0,0,0,0,0,2.09902358055115,-0.537983000278473,1.08505821228027,-6.94413186208369e-05,0,9.81,2.09874153137207,-0.537833750247955,1.08703553676605,0.00047429816913791,2.09907184925919,-0.537891537782831,1.08506484816237,0.00160860657954151,2.09907184925919,-0.537891537782831,1.08506484816237,0.00160860657954151,-0.00033031788711968,5.77875348759527e-05,0.00197068860368432,-0.0011343084104036,0.000335334617566169,0.00197068860368432,-0.0011343084104036,-0.00033031788711968,5.77875348759527e-05,0.00199963218397026,-0.0011343084104036,0.000335334617566169,0.00197068860368432,-0.0011343084104036,0,0,0,0,0,0,0,NaN,NaN,NaN,NaN,NaN,NaN,,NaN,0,0,0,0.806974542140961,0.600506067276001,0.887844038009644,0.81603946685791,NaN,0.289316354799058,0.185260057449341,0.229665943384171,0.279148667618632,0.407740803994238,NaN,0.862891909263869,0.167,0.167,0.539246951375243,0.5,0.000322341918945312,-0.000172555446624756,-0.000827431678771973,0.000682424986734986,NaN,2.0987012386322,-0.537810444831848
1777642666.61486,45,model,0.0111584663391113,-0.000117608024718177,0,0,-0.0299285574539765,0,1,0.0111584663391113,0,,,,0,0,0,0,0,0,0,0,2.09902358055115,-0.537983000278473,1.08505821228027,6.94413186209361e-05,0,9.81,2.09876108169556,-0.537829875946045,1.08700048923492,0.00044447640539147,2.09906525897023,-0.537904027581824,1.08501132897329,0.000719045256031944,2.09906525897023,-0.537904027581824,1.08501132897329,0.000719045256031944,-0.000304177274674355,7.41516357786187e-05,0.00198916026163154,-0.000274568850640475,0.000313085099480897,0.00198916026163154,-0.000274568850640475,-0.000304177274674355,7.41516357786187e-05,0.00207177322666762,-0.000274568850640475,0.000313085099480897,0.00198916026163154,-0.000274568850640475,0,0,0,0,0,0,0,NaN,NaN,NaN,NaN,NaN,NaN,,NaN,0,0,0,0.809852194786072,0.602577269077301,0.898012471199036,0.825637125968933,NaN,0.29164741779962,0.188002437353134,0.231585958003998,0.287945553228259,0.41970636844635,NaN,0.733452884841159,0.167,0.167,0.389963788328437,0.5,0.000279664993286133,-0.000153779983520508,-0.00170671939849854,-0.000576306250877678,NaN,2.09874391555786,-0.537829220294952
1777642666.6259,46,model,0.0105776786804199,0.00119680679763256,0,0,-0.0010124550083448,0,1,0.0217361450195312,0,,,,0,0,0,0,0,0,0,0,2.09902358055115,-0.537983000278473,1.08505821228027,-6.94413186208615e-05,0,9.81,2.09876847267151,-0.537839353084564,1.08696615695953,0.000438369665062055,2.09905844819931,-0.53791693381048,1.08502494928202,0.000946716586039845,2.09905844819931,-0.53791693381048,1.08502494928202,0.000946716586039845,-0.000289975527804298,7.75807259154604e-05,0.0019412076775156,-0.00050834692097779,0.000300174242330935,0.0019412076775156,-0.00050834692097779,-0.000289975527804298,7.75807259154604e-05,0.00200708051667289,-0.00050834692097779,0.000300174242330935,0.0019412076775156,-0.00050834692097779,0,0,0,0,0,0,0,NaN,NaN,NaN,NaN,NaN,NaN,,NaN,0,0,0,0.811610233783722,0.603772044181824,0.90455014705658,0.831892931461334,NaN,0.292976692608456,0.190443962812424,0.231476345062256,0.295175807118416,0.430593259260058,NaN,0.679244282242086,0.167,0.167,0.32884274913185,0.5,0.000260353088378906,-0.000157177448272705,-0.00181806087493896,0.000766188575653359,NaN,2.09876322746277,-0.5378258228302
1777642666.63693,47,model,0.01102614402771,0.00170237178308032,0,0,-0.135731469560481,0,1,0.0327622890472412,0,,,,0,0,0,0,0,0,0,0,2.09902358055115,-0.537983000278473,1.08505821228027,6.94413186209176e-05,0,9.81,2.09877490997314,-0.537861585617065,1.08688724040985,0.000441378680989146,2.09905498103018,-0.537923502676914,1.08477307825722,0.00130915976913144,2.09905498103018,-0.537923502676914,1.08477307825722,0.00130915976913144,-0.000280071057036757,6.19170598490371e-05,0.00211416215263238,-0.000867781088142291,0.000286833609066364,0.00211416215263238,-0.000867781088142291,-0.000280071057036757,6.19170598490371e-05,0.00216663110335077,-0.000867781088142291,0.000286833609066364,0.00211416215263238,-0.000867781088142291,0,0,0,0,0,0,0,NaN,NaN,NaN,NaN,NaN,NaN,,NaN,0,0,0,0.81268275976181,0.604409158229828,0.908495736122131,0.835877621173859,NaN,0.293905567676788,0.192373305559158,0.230545350313187,0.300537170410156,0.438747355341911,NaN,0.652314808058731,0.167,0.167,0.30013292180563,0.5,0.000252962112426758,-0.000147759914398193,-0.00323295593261719,0.00127824934315868,NaN,2.09877061843872,-0.537835240364075
1777642666.64726,48,model,0.0102477073669434,0.00137782899640642,0,0,-0.0191869191370109,0,1,0.0430099964141846,0,,,,0,0,0,0,0,0,0,0,2.09902358055115,-0.537983000278473,1.08505821228027,-6.94413186208754e-05,0,9.81,2.09877753257751,-0.537888526916504,1.08678722381592,0.000437528535258025,2.09905380259192,-0.537925740735643,1.08481945672998,0.00132372210432173,2.09905380259192,-0.537925740735643,1.08481945672998,0.00132372210432173,-0.000276270014408997,3.72138191387927e-05,0.0019677670859366,-0.000886193569063708,0.000278765114740783,0.0019677670859366,-0.000886193569063708,-0.000276270014408997,3.72138191387927e-05,0.00201178666091389,-0.000886193569063708,0.000278765114740783,0.0019677670859366,-0.000886193569063708,0,0,0,0,0,0,0,NaN,NaN,NaN,NaN,NaN,NaN,,NaN,0,0,0,0.81333554983139,0.604723632335663,0.911005330085754,0.838495755195618,NaN,0.294420721792476,0.193812027573586,0.229435929059982,0.304345594286919,0.44425198584795,NaN,0.637652763579356,0.193558311892893,0.193558311797786,0.28578209650586,0.5,0.000246524810791016,-0.000125288963317871,-0.00351691246032715,0.000949782639509067,NaN,2.09877705574036,-0.537857711315155
1777642666.65813,49,model,0.0109522342681885,0.00231479670073329,0,0,0.0450244452860239,0,1,0.053962230682373,0,,,,0,0,0,0,0,0,0,0,2.09902358055115,-0.537983000278473,1.08505821228027,6.94413186209072e-05,0,9.81,2.09877347946167,-0.537911057472229,1.08669114112854,0.000468364130938426,2.0990535533486,-0.537926218020258,1.08497488317501,0.00179789272981797,2.0990535533486,-0.537926218020258,1.08497488317501,0.00179789272981797,-0.000280073886927301,1.51605480291916e-05,0.00171625795352526,-0.00132952859887954,0.000280483911045023,0.00171625795352526,-0.00132952859887954,-0.000280073886927301,1.51605480291916e-05,0.00172050306565793,-0.00132952859887954,0.000280483911045023,0.00171625795352526,-0.00132952859887954,0,0,0,0,0,0,0,NaN,NaN,NaN,NaN,NaN,NaN,,NaN,0,0,0,0.813631784915924,0.604769468307495,0.912539911270142,0.840134584903717,NaN,0.294606536358628,0.194839879870415,0.228343852758408,0.307056070804596,0.447927107661963,NaN,0.62920460154491,0.184932097421204,0.184932097338032,0.278385828086932,0.5,0.000243902206420898,-9.85860824584961e-05,-0.00306105613708496,0.0018913927488029,NaN,2.09877967834473,-0.537884414196014
1777642666.66859,50,model,0.010955810546875,-0.00271688940657043,0,0,-0.0261303306513477,0,1,0.064918041229248,0,,,,0,0,0,0,0,0,0,0,2.09902358055115,-0.537983000278473,1.08505821228027,-6.94413186208832e-05,0,9.81,2.09877967834473,-0.537945985794067,1.08659446239471,0.000323963962728158,2.09905548872959,-0.53792255509572,1.08494583529542,-0.000488528245185748,2.09905548872959,-0.53792255509572,1.08494583529542,-0.000488528245185748,-0.000275810384860797,-2.34306983470933e-05,0.00164862709929547,0.000812492207913905,0.000276803840331188,0.00164862709929547,0.000812492207913905,-0.000275810384860797,-2.34306983470933e-05,0.00178090558821947,0.000812492207913905,0.000276803840331188,0.00164862709929547,0.000812492207913905,0,0,0,0,0,0,0,NaN,NaN,NaN,NaN,NaN,NaN,,NaN,0,0,0,0.813695025444031,0.60468852519989,0.913152825832367,0.24073349237442,NaN,0.294599408084746,0.195584654808044,0.227383502721787,0.308971369206905,0.450318449735642,NaN,0.62414339893028,0.179160817746568,0.179160817659853,0.274513724931179,0.5,0.000247716903686523,-7.63535499572754e-05,-0.00326287746429443,-0.00317012850428,NaN,2.09877586364746,-0.537906646728516
1777642666.67932,51,model,0.0106947422027588,-0.000363278150102144,0,0,-0.0804693048257021,0,1,0.0756127834320068,0,,,,0,0,0,0,0,0,0,0,2.09902358055115,-0.537983000278473,1.08505821228027,6.94413186209014e-05,0,9.81,2.09877490997314,-0.537986159324646,1.08646321296692,0.000265530135948211,2.09904794663101,-0.537936837898553,1.08481992684411,-0.000418203080176714,2.09904794663101,-0.537936837898553,1.08481992684411,-0.000418203080176714,-0.000273036657863379,-4.93214260931518e-05,0.00164328612280773,0.000683733216124925,0.000277455617368015,0.00164328612280773,0.000683733216124925,-0.000273036657863379,-4.93214260931518e-05,0.00176739808196506,0.000683733216124925,0.000277455617368015,0.00164328612280773,0.000683733216124925,0,0,0,0,0,0,0,NaN,NaN,NaN,NaN,NaN,NaN,,NaN,0,0,0,0.813634526729584,0.604409277439117,0.91351021528244,0.241362917423248,NaN,0.294475781882645,0.196092754602432,0.226581164598465,0.310302936971188,0.451895372569561,NaN,0.621021453206265,0.175253753490274,0.175253753442082,0.272469978387386,0.5,0.000242233276367188,-3.99947166442871e-05,-0.00404345989227295,-0.000677029544021934,NaN,2.09878134727478,-0.537943005561829
1777642666.68961,52,model,0.0107448101043701,-0.00128645246078254,0,0,0.114027358580332,0,1,0.086357593536377,0,,,,0,0,0,0,0,0,0,0,2.09902358055115,-0.537983000278473,1.08505821228027,-6.94413186208876e-05,0,9.81,2.09877276420593,-0.538018107414246,1.08637070655823,0.000183152122190222,2.09904206034421,-0.537947988645618,1.08510776902364,-0.000845705249794008,2.09904206034421,-0.537947988645618,1.08510776902364,-0.000845705249794008,-0.000269296138277308,-7.01187686271698e-05,0.00126293753458739,0.00102885737198423,0.000278275136878705,0.00126293753458739,0.00102885737198423,-0.000269296138277308,-7.01187686271698e-05,0.00138920574435441,0.00102885737198423,0.000278275136878705,0.00126293753458739,0.00102885737198423,0,0,0,0,0,0,0,NaN,NaN,NaN,NaN,NaN,NaN,,NaN,0,0,0,0.813568961620331,0.604113221168518,0.913777780532837,0.241816866397858,NaN,0.294274027313503,0.196437299251556,0.225913771390915,0.311257464379072,0.452912719547749,NaN,0.61905057935047,0.172587552102724,0.172587552073167,0.271386612641347,0.5,0.000247478485107422,7.15255737304688e-07,-0.00292766094207764,-0.00154357284191065,NaN,2.09877610206604,-0.53798371553421
1777642666.70108,53,model,0.0103282928466797,-0.000606125307809378,0,0,0.0479360640974963,0,1,0.0966858863830566,0,,,,0,0,0,0,0,0,0,0,2.09902358055115,-0.537983000278473,1.08505821228027,6.94413186208981e-05,0,9.81,2.09876894950867,-0.538043141365051,1.0862934589386,0.000134363668621518,2.09903562675555,-0.537960177839996,1.08518460345892,-0.00071304212607679,2.09903562675555,-0.537960177839996,1.08518460345892,-0.00071304212607679,-0.00026667724688556,-8.29635250557681e-05,0.00110885547968298,0.000847405794698308,0.000279284264676944,0.00110885547968298,0.000847405794698308,-0.00026667724688556,-8.29635250557681e-05,0.00121628736784534,0.000847405794698308,0.000279284264676944,0.00110885547968298,0.000847405794698308,0,0,0,0,0,0,0,NaN,NaN,NaN,NaN,NaN,NaN,,NaN,0,0,0,0.813455951213837,0.603729248046875,0.913932991027832,0.242164957523346,NaN,0.294054469972482,0.196676224470139,0.225374766588211,0.311931496053934,0.453571701049805,NaN,0.617782598965131,0.170758204723348,0.170758204703386,0.270811023833628,0.5,0.000249862670898438,3.34978103637695e-05,-0.00236070156097412,-0.00078370158735197,NaN,2.09877371788025,-0.538016498088837
1777642666.71219,54,model,0.0107884407043457,0.000257643364335268,0,0,-0.0438688976246734,0,1,0.107474327087402,0,,,,0,0,0,0,0,0,0,0,2.09902358055115,-0.537983000278473,1.08505821228027,-6.94413186208901e-05,0,9.81,2.09876036643982,-0.538069903850555,1.08619809150696,0.000118396201287396,2.09903069749892,-0.5379695164796,1.08506410071296,-0.000216362039614202,2.09903069749892,-0.5379695164796,1.08506410071296,-0.000216362039614202,-0.000270331059099238,-0.000100387370955413,0.00113399079399468,0.000334758240901598,0.000288368697609597,0.00113399079399468,0.000334758240901598,-0.000270331059099238,-0.000100387370955413,0.00121122805542964,0.000334758240901598,0.000288368697609597,0.00113399079399468,0.000334758240901598,0,0,0,0,0,0,0,NaN,NaN,NaN,NaN,NaN,NaN,,NaN,0,0,0,0.813326549530029,0.603325963020325,0.913892221450806,0.242385792732239,NaN,0.2938545826584,0.196850657463074,0.224951812028885,0.312383474349976,0.45399239808321,NaN,0.61695401588957,0.169498357566926,0.169498357550665,0.27050484522309,0.5,0.000253915786743164,5.88893890380859e-05,-0.00274169445037842,0.000127552455523983,NaN,2.0987696647644,-0.538041889667511
1777642666.72347,55,model,0.0110747814178467,0.00231433237758019,0,0,0.0159851104670392,0,1,0.118549108505249,0,,,,0,0,0,0,0,0,0,0,2.09902358055115,-0.537983000278473,1.08505821228027,6.94413186208962e-05,0,9.81,2.09874510765076,-0.538089275360107,1.086097240448,0.000181603143573739,2.09902859769188,-0.537973494393714,1.08509480196031,0.00105251662321377,2.09902859769188,-0.537973494393714,1.08509480196031,0.00105251662321377,-0.000283490041122381,-0.000115780966393308,0.00100243848768411,-0.000870913479640032,0.000306221873148437,0.00100243848768411,-0.000870913479640032,-0.000283490041122381,-0.000115780966393308,0.000999129080095337,-0.000870913479640032,0.000306221873148437,0.00100243848768411,-0.000870913479640032,0,0,0,0,0,0,0,NaN,NaN,NaN,NaN,NaN,NaN,,NaN,0,0,0,0.813109469413757,0.602933049201965,0.913728845119476,0.242418396472931,NaN,0.293667978254766,0.196966946125031,0.22461848795414,0.312683661967516,0.454249983280897,NaN,0.616405598988973,0.168628489285636,0.168628489273714,0.270341871839043,0.5,0.000262737274169922,8.57710838317871e-05,-0.00258874893188477,0.00219980112160556,NaN,2.09876084327698,-0.538068771362305
1777642666.73411,56,model,0.01088547706604,0.00159329542908074,0,0,0.0789019400767463,0,1,0.129434585571289,0,,,,0,0,0,0,0,0,0,0,2.09902358055115,-0.537983000278473,1.08505821228027,-6.94413186208915e-05,0,9.81,2.09873509407043,-0.538101673126221,1.08602857589722,0.000218601868255064,2.09903206107739,-0.53796693212962,1.08524160519849,0.00130602053168664,2.09903206107739,-0.53796693212962,1.08524160519849,0.00130602053168664,-0.000296967006956361,-0.000134740996601046,0.000786970698725575,-0.00108741866343157,0.000326105104813866,0.000786970698725575,-0.00108741866343157,-0.000296967006956361,-0.000134740996601046,0.000759605112273539,-0.00108741866343157,0.000326105104813866,0.000786970698725575,-0.00108741866343157,0,0,0,0,0,0,0,NaN,NaN,NaN,NaN,NaN,NaN,,NaN,0,0,0,0.812962365150452,0.602537274360657,0.913626801967621,0.24251823425293,NaN,0.293492300407722,0.197060242295265,0.224337243437767,0.312891253769398,0.454401211440563,NaN,0.616038830252023,0.168026819836255,0.168026819827832,0.270255094330207,0.5,0.000277519226074219,0.000104606151580811,-0.00176131725311279,0.0014175192482071,NaN,2.09874606132507,-0.538087606430054
1777642666.74503,57,model,0.0110530853271484,-0.00232204503082027,0,0,0.1680291807301,0,1,0.140487670898438,0,,,,0,0,0,0,0,0,0,0,2.09902358055115,-0.537983000278473,1.08505821228027,6.9441318620895e-05,0,9.81,2.09874486923218,-0.538106679916382,1.08604180812836,0.000116008573968429,2.09903606408619,-0.537959344010113,1.0855309002775,-0.000529287313749686,2.09903606408619,-0.537959344010113,1.0855309002775,-0.000529287313749686,-0.000291194854008747,-0.000147335906268808,0.000510907850854281,0.000645295887718115,0.0003263469201283,0.000510907850854281,0.000645295887718115,-0.000291194854008747,-0.000147335906268808,0.000576042731450062,0.000645295887718115,0.0003263469201283,0.000510907850854281,0.000645295887718115,0,0,0,0,0,0,0,NaN,NaN,NaN,NaN,NaN,NaN,,NaN,0,0,0,0.812698435783386,0.602117419242859,0.913390827178955,0.242245066165924,NaN,0.293315054513132,0.197144716978073,0.224088349342346,0.31304493689537,0.454448764771223,NaN,0.615791492561212,0.167610148091082,0.167610148076903,0.270208879979808,0.5,0.000287294387817383,0.000116586685180664,3.69548797607422e-06,-0.00253352474828716,NaN,2.09873628616333,-0.538099586963654
1777642666.75514,58,model,0.0109660625457764,-0.00194950526015508,0,0,-0.00337756019704375,0,1,0.151453733444214,0,,,,0,0,0,0,0,0,0,0,2.09902358055115,-0.537983000278473,1.08505821228027,-6.94413186208926e-05,0,9.81,2.09875249862671,-0.53811103105545,1.0860538482666,3.47593449987471e-05,2.09903179418286,-0.537967439259427,1.08539642959145,-0.0012308420838971,2.09903179418286,-0.537967439259427,1.08539642959145,-0.0012308420838971,-0.000279295556149695,-0.000143591796023523,0.000657418675153565,0.00126560142889584,0.000314045556520433,0.000657418675153565,0.00126560142889584,-0.000279295556149695,-0.000143591796023523,0.000767935404588628,0.00126560142889584,0.000314045556520433,0.000657418675153565,0.00126560142889584,0,0,0,0,0,0,0,NaN,NaN,NaN,NaN,NaN,NaN,,NaN,0,0,0,0.812469434738159,0.601588666439056,0.913269293308258,0.242257046699524,NaN,0.293138126547963,0.19720846414566,0.223865308761597,0.313121454358101,0.454438248276711,NaN,0.615623589502949,0.16732134736312,0.16732134735661,0.270184265617134,0.5,0.000278234481811523,0.000122606754302979,3.33786010742188e-05,-0.0020617640693672,NaN,2.09874534606934,-0.538105607032776
1777642666.76624,59,model,0.0105621814727783,-0.00377712468623408,0,0,-0.0174319940450195,0,0,0.162015914916992,0,,,,0,0,0,0,0,0,0,0,2.09902358055115,-0.537983000278473,1.08505821228027,6.94413186208942e-05,0,9.81,2.09877586364746,-0.538111984729767,1.08605480194092,-8.96372075658292e-05,2.09902591727973,-0.537978579819268,1.08535039962031,-0.00248482348173067,2.09902591727973,-0.537978579819268,1.08535039962031,-0.00248482348173067,-0.000250053632270486,-0.000133404910498847,0.000704402320604203,0.00239518627416484,0.000283414341833417,0.000704402320604203,0.00239518627416484,-0.000250053632270486,-0.000133404910498847,0.000886569287204368,0.00239518627416484,0.000283414341833417,0.000704402320604203,0.00239518627416484,0,0,0,0,0,0,0,NaN,NaN,NaN,NaN,NaN,NaN,,NaN,0,0,0,0.803062629699707,0.590655326843262,0.893470299243927,0.228274691104889,NaN,0.289328207497019,0.195213377475739,0.222768106460571,0.307324343860149,0.447218348830938,NaN,0.5,NaN,NaN,NaN,0.5,0.000270843505859375,0.000127732753753662,-0.000206828117370605,-0.0038108018670755,NaN,2.09875273704529,-0.538110733032227
1777642666.77731,60,model,0.0106098651885986,-0.00155673899016813,0,0,0.10872838285394,0,0,0.172625780105591,0,,,,0,0,0,0,0,0,0,0,2.09902358055115,-0.537983000278473,1.08505821228027,-6.94413186208932e-05,0,9.81,2.09878730773926,-0.538103938102722,1.08607137203217,-0.000118956530059222,2.09901400389439,-0.538001170078485,1.08563879799138,-0.00198192660752915,2.09901400389439,-0.538001170078485,1.08563879799138,-0.00198192660752915,-0.000226696155135819,-0.000102768024237143,0.000432574040788225,0.00186297007746993,0.000248902417744323,0.000432574040788225,0.00186297007746993,-0.000226696155135819,-0.000102768024237143,0.000568497646962274,0.00186297007746993,0.000248902417744323,0.000432574040788225,0.00186297007746993,0,0,0,0,0,0,0,NaN,NaN,NaN,NaN,NaN,NaN,,NaN,0,0,0,0.796976041793823,0.583457767963409,0.880700302124023,0.219401466846466,NaN,0.285802463730612,0.192792057991028,0.222094395160675,0.300019317805767,0.437325244396925,NaN,0.5,NaN,NaN,NaN,0.5,0.000248193740844727,0.000129818916320801,0.000766396522521973,-0.00146990504435962,NaN,2.0987753868103,-0.538112819194794
1777642666.78834,61,model,0.0110423564910889,-0.00130339333639515,0,0,-0.0397896347183961,0,0,0.18366813659668,0,,,,0,0,0,0,0,0,0,0,2.09902358055115,-0.537983000278473,1.08505821228027,6.94413186208937e-05,0,9.81,2.0987982749939,-0.538097143173218,1.08607351779938,-0.000134951522340998,2.09900412897198,-0.538019899039762,1.08552895515857,-0.00161040574157435,2.09900412897198,-0.538019899039762,1.08552895515857,-0.00161040574157435,-0.000205853978087145,-7.72441334555563e-05,0.000544562640802937,0.00147545421923336,0.000219869316748842,0.000544562640802937,0.00147545421923336,-0.000205853978087145,-7.72441334555563e-05,0.000662311227563079,0.00147545421923336,0.000219869316748842,0.000544562640802937,0.00147545421923336,0,0,0,0,0,0,0,NaN,NaN,NaN,NaN,NaN,NaN,,NaN,0,0,0,0.793022108078003,0.578607380390167,0.872346413135529,0.213738965988159,NaN,0.283604440116641,0.19035604596138,0.221893765926361,0.292657857328653,0.427891706675291,NaN,0.5,NaN,NaN,NaN,0.5,0.000236749649047852,0.0001220703125,0.00036311149597168,-0.00118830870633246,NaN,2.0987868309021,-0.538105070590973
1777642666.7984,62,model,0.0110485553741455,-0.00184135115065023,0,0,-0.06757434347859,0,0,0.194716691970825,0,,,,0,0,0,0,0,0,0,0,2.09902358055115,-0.537983000278473,1.08505821228027,-6.94413186208935e-05,0,9.81,2.09881997108459,-0.538085162639618,1.086057305336,-0.000155502231791615,2.09899609853734,-0.538035124239973,1.08534230543963,-0.00169965570068899,2.09899609853734,-0.538035124239973,1.08534230543963,-0.00169965570068899,-0.000176127452748087,-5.00383996449028e-05,0.000714999896372248,0.00154415346889737,0.000183097572486783,0.000714999896372248,0.00154415346889737,-0.000176127452748087,-5.00383996449028e-05,0.000845485107194158,0.00154415346889737,0.000183097572486783,0.000714999896372248,0.00154415346889737,0,0,0,0,0,0,0,NaN,NaN,NaN,NaN,NaN,NaN,,NaN,0,0,0,0.790397417545319,0.575330197811127,0.866760444641113,0.210014629364014,NaN,0.282598981932752,0.188171625137329,0.22202742934227,0.286032544016838,0.419935848191381,NaN,0.5,NaN,NaN,NaN,0.5,0.000226020812988281,0.000115394592285156,-0.000421404838562012,-0.00171079454594292,NaN,2.09879755973816,-0.538098394870758
1777642666.80949,63,model,0.0106158256530762,-0.00100470387696765,0,0,-0.0208605659058495,0,0,0.205332517623901,0,,,,0,0,0,0,0,0,0,0,2.09902358055115,-0.537983000278473,1.08505821228027,6.94413186208935e-05,0,9.81,2.09883499145508,-0.538077592849731,1.08604323863983,-0.000162506359629333,2.09898794239463,-0.538050583241249,1.08528694240696,-0.00132558772255793,2.09898794239463,-0.538050583241249,1.08528694240696,-0.00132558772255793,-0.000152950939549257,-2.70096084820093e-05,0.000756296232875542,0.0011630813629286,0.000155317445444328,0.000756296232875542,0.0011630813629286,-0.000152950939549257,-2.70096084820093e-05,0.000865467141154668,0.0011630813629286,0.000155317445444328,0.000756296232875542,0.0011630813629286,0,0,0,0,0,0,0,NaN,NaN,NaN,NaN,NaN,NaN,,NaN,0,0,0,0.788692605495453,0.573114156723023,0.86312313079834,0.207698094844818,NaN,0.282392143526272,0.186383545398712,0.222344853878021,0.28053085462749,0.413619966804981,NaN,0.5,NaN,NaN,NaN,0.5,0.000204324722290039,0.000103592872619629,-0.000737190246582031,-0.000854067533509806,NaN,2.09881925582886,-0.538086593151093
1777642666.8202,64,model,0.0110790729522705,-0.00202343723917956,0,0,-0.0677406842796932,1,1,0,0,,,,0,0,0,0,0,0,0,0,2.09902358055115,-0.537983000278473,1.08505821228027,-6.94413186208937e-05,0,9.81,2.09888052940369,-0.538048982620239,1.08600056171417,-0.000191054656170309,2.09899266604261,-0.538041616126524,1.08508019093321,-0.00165286789668628,2.09899266604261,-0.538041616126524,1.08508019093321,-0.00165286789668628,-0.000112136638922067,-7.36649371491094e-06,0.000920370780962187,0.00146181324051597,0.000112378338741903,0.000920370780962187,0.00146181324051597,-0.000112136638922067,-7.36649371491094e-06,0.00105607288831238,0.00146181324051597,0.000112378338741903,0.000920370780962187,0.00146181324051597,0,0,0,0,0,0,0,NaN,NaN,NaN,NaN,NaN,NaN,,NaN,0,0,0,0.808658134937286,0.602600932121277,0.891209673881531,0.218597936630249,NaN,0.288252022534555,0.187543898820877,0.228143029808998,0.286646248340607,0.416226937994361,NaN,0.781560002365502,0.167,0.167,0.465293330303802,0.5,0.000189304351806641,9.61422920227051e-05,-0.00103676319122314,-0.00186623784247786,NaN,2.09883427619934,-0.538079142570496
1777642666.8311,65,model,0.0104310512542725,-0.00263075880027843,0,0,0.0703719784263687,0,1,0.0104310512542725,0,,,,0,0,0,0,0,0,0,0,2.09902358055115,-0.537983000278473,1.08505821228027,6.94413186208934e-05,0,9.81,2.09889936447144,-0.538035213947296,1.08596634864807,-0.000229630473768339,2.09899384272895,-0.538039370766707,1.08518949251855,-0.00211640341221778,2.09899384272895,-0.538039370766707,1.08518949251855,-0.00211640341221778,-9.44782575107439e-05,4.15681941057233e-06,0.000776856129517611,0.00188677293844944,9.45696583999252e-05,0.000776856129517611,0.00188677293844944,-9.44782575107439e-05,4.15681941057233e-06,0.000931454167240564,0.00188677293844944,9.45696583999252e-05,0.000776856129517611,0.00188677293844944,0,0,0,0,0,0,0,NaN,NaN,NaN,NaN,NaN,NaN,,NaN,0,0,0,0.810884666442871,0.603916883468628,0.900301229953766,0.227247822284699,NaN,0.291129534367172,0.189595222473145,0.230259546041489,0.293526049271226,0.425880090892315,NaN,0.698579324596287,0.167,0.167,0.361142106224848,0.5,0.000144004821777344,6.77108764648438e-05,-0.000399351119995117,-0.00244557840051129,NaN,2.09887957572937,-0.538050711154938
1777642666.84387,66,model,0.0111587047576904,-0.00582634861974624,0,0,0.0579316884896831,0,1,0.0215897560119629,0,,,,0,0,0,0,0,0,0,0,2.09902358055115,-0.537983000278473,1.08505821228027,-6.94413186208937e-05,0,9.81,2.09892559051514,-0.538015246391296,1.08593332767487,-0.00035472703166306,2.09899165027415,-0.538043515695277,1.08525866567151,-0.0039365703785518,2.09899165027415,-0.538043515695277,1.08525866567151,-0.0039365703785518,-6.60597590167455e-05,2.82693039804771e-05,0.00067466200335442,0.00358184334688874,7.1854333960389e-05,0.00067466200335442,0.00358184334688874,-6.60597590167455e-05,2.82693039804771e-05,0.000928144441908682,0.00358184334688874,7.1854333960389e-05,0.00067466200335442,0.00358184334688874,0,0,0,0,0,0,0,NaN,NaN,NaN,NaN,NaN,NaN,,NaN,0,0,0,0.812135529518127,0.604604661464691,0.905899119377136,0.232455122470856,NaN,0.292783646213808,0.191552311182022,0.230386340022087,0.299263516008854,0.434951381385326,NaN,0.661450107105184,0.167,0.167,0.315603871908761,0.5,0.000125408172607422,5.44190406799316e-05,0.000221967697143555,-0.0056042708165478,NaN,2.09889817237854,-0.538037419319153
1777642666.8519,67,model,0.0107343196868896,-0.00403683019899398,0,0,0.0465399970406085,0,1,0.0323240756988525,0,,,,0,0,0,0,0,0,0,0,2.09902358055115,-0.537983000278473,1.08505821228027,6.94413186208934e-05,0,9.81,2.0989363193512,-0.538008451461792,1.08594048023224,-0.000445451500127092,2.09898252663238,-0.538060799898537,1.08528804154207,-0.00392442297134446,2.09898252663238,-0.538060799898537,1.08528804154207,-0.00392442297134446,-4.62072811804326e-05,5.23484367450644e-05,0.00065243869017273,0.00347897147121737,6.98245777913449e-05,0.00065243869017273,0.00347897147121737,-4.62072811804326e-05,5.23484367450644e-05,0.0008984986801814,0.00347897147121737,6.98245777913449e-05,0.00065243869017273,0.00347897147121737,0,0,0,0,0,0,0,NaN,NaN,NaN,NaN,NaN,NaN,,NaN,0,0,0,0.812841725349426,0.604815185070038,0.909526717662811,0.235998380184174,NaN,0.293795222107103,0.193125501275063,0.229687892794609,0.303503283798695,0.441699320077896,NaN,0.642358342194437,0.195487221442266,0.195487221182939,0.293587690763458,0.5,9.96589660644531e-05,3.55243682861328e-05,0.000709056854248047,-0.00369332695845515,NaN,2.09892392158508,-0.538018524646759
1777642666.86344,68,model,0.0105471611022949,-0.00407679524733043,0,0,-0.0449900669262148,0,1,0.0428712368011475,0,,,,0,0,0,0,0,0,0,0,2.09902358055115,-0.537983000278473,1.08505821228027,-6.94413186208938e-05,0,9.81,2.0989453792572,-0.538011968135834,1.08594536781311,-0.000546099967323244,2.09897493793783,-0.538075176199321,1.08513800624775,-0.00393960645383703,2.09897493793783,-0.538075176199321,1.08513800624775,-0.00393960645383703,-2.9558680623154e-05,6.32080634875853e-05,0.000807361565358988,0.00339350648651379,6.97780401704737e-05,0.000807361565358988,0.00339350648651379,-2.9558680623154e-05,6.32080634875853e-05,0.00105592434479096,0.00339350648651379,6.97780401704737e-05,0.000807361565358988,0.00339350648651379,0,0,0,0,0,0,0,NaN,NaN,NaN,NaN,NaN,NaN,,NaN,0,0,0,0.813305449485779,0.604806900024414,0.911812674999237,0.238374698162079,NaN,0.294317080712516,0.19431671500206,0.22877087533474,0.306465031147003,0.446190738677979,NaN,0.631755366160631,0.186211529523995,0.186211529211503,0.282427645737824,0.5,8.94069671630859e-05,2.95042991638184e-05,0.00025331974029541,-0.00364519222057424,NaN,2.09893417358398,-0.538012504577637
1777642666.87458,69,model,0.0111391544342041,-0.00277902041617666,0,0,0.0134376912684024,0,1,0.0540103912353516,0,,,,0,0,0,0,0,0,0,0,2.09902358055115,-0.537983000278473,1.08505821228027,6.94413186208933e-05,0,9.81,2.09894895553589,-0.538017690181732,1.08595740795135,-0.00060282793128863,2.09896744817339,-0.53808936000118,1.08514300159814,-0.00329463754449945,2.09896744817339,-0.53808936000118,1.08514300159814,-0.00329463754449945,-1.84926375017547e-05,7.16698194479504e-05,0.000814406353217834,0.00269180961321082,7.40171646408663e-05,0.000814406353217834,0.00269180961321082,-1.84926375017547e-05,7.16698194479504e-05,0.00102027163236327,0.00269180961321082,7.40171646408663e-05,0.000814406353217834,0.00269180961321082,0,0,0,0,0,0,0,NaN,NaN,NaN,NaN,NaN,NaN,,NaN,0,0,0,0.813523125648498,0.604655086994171,0.913223278522491,0.239942359924316,NaN,0.294490265173159,0.195178970694542,0.227831044197083,0.308549286365509,0.449161035567522,NaN,0.625573855690412,0.180021965418529,0.180021965048507,0.276634836384187,0.5,8.10623168945312e-05,3.41534614562988e-05,0.00029301643371582,-0.00225085095735267,NaN,2.09894251823425,-0.538017153739929
1777642666.88511,70,model,0.0105199813842773,-0.00456112944323473,0,0,-0.0280970086810525,0,1,0.0645303726196289,0,,,,0,0,0,0,0,0,0,0,2.09902358055115,-0.537983000278473,1.08505821228027,-6.94413186208938e-05,0,9.81,2.098956823349,-0.538031876087189,1.08596622943878,-0.000724697369150817,2.09896439708922,-0.538095135964687,1.08506612600985,-0.00387680242617132,2.09896439708922,-0.538095135964687,1.08506612600985,-0.00387680242617132,-7.57374022075652e-06,6.32598774981119e-05,0.000900103428935317,0.00315210505702051,6.37116444773452e-05,0.000900103428935317,0.00315210505702051,-7.57374022075652e-06,6.32598774981119e-05,0.00113849310487383,0.00315210505702051,6.37116444773452e-05,0.000900103428935317,0.00315210505702051,0,0,0,0,0,0,0,NaN,NaN,NaN,NaN,NaN,NaN,,NaN,0,0,0,0.813585948944092,0.604437351226807,0.913922739028931,0.240774619579315,NaN,0.294457284978927,0.19579391181469,0.22698263168335,0.310008922159672,0.451084525883198,NaN,0.62184466298567,0.175839096075399,0.175839095705767,0.273590952590239,0.5,7.74860382080078e-05,4.01139259338379e-05,-3.79085540771484e-05,-0.00397699442692101,NaN,2.09894609451294,-0.538023114204407
1777642666.89575,71,model,0.0116443634033203,-0.00436940405644389,0,0,-0.036825216829999,0,1,0.0761747360229492,0,,,,0,0,0,0,0,0,0,0,2.09902358055115,-0.537983000278473,1.08505821228027,6.94413186208933e-05,0,9.81,2.09896206855774,-0.538053512573242,1.08596122264862,-0.000835681799799204,2.09895780367416,-0.53810761997932,1.08498592888176,-0.00405657182464169,2.09895780367416,-0.53810761997932,1.08498592888176,-0.00405657182464169,4.26488357563315e-06,5.4107406077919e-05,0.000975293766865448,0.00322089002484249,5.42752303025471e-05,0.000975293766865448,0.00322089002484249,4.26488357563315e-06,5.4107406077919e-05,0.00122166297987051,0.00322089002484249,5.42752303025471e-05,0.000975293766865448,0.00322089002484249,0,0,0,0,0,0,0,NaN,NaN,NaN,NaN,NaN,NaN,,NaN,0,0,0,0.813537728786468,0.604113638401032,0.914259624481201,0.241366076469421,NaN,0.294305895311084,0.196216747164726,0.226259061098099,0.311022178769112,0.452322447299957,NaN,0.619534943994856,0.172988090535195,0.172988090113864,0.271981226825841,0.5,7.05718994140625e-05,5.60879707336426e-05,-0.000523805618286133,-0.00366958044469357,NaN,2.09895300865173,-0.538039088249207
1777642666.90729,72,model,0.01053786277771,-0.00235107774916483,0,0,-0.0603809166286245,0,1,0.0867125988006592,0,,,,0,0,0,0,0,0,0,0,2.09902358055115,-0.537983000278473,1.08505821228027,-6.94413186208938e-05,0,9.81,2.09895920753479,-0.538077533245087,1.08592677116394,-0.000873535755090415,2.09895302255743,-0.538116669242402,1.08488958398748,-0.00314082355223055,2.09895302255743,-0.538116669242402,1.08488958398748,-0.00314082355223055,6.18497735782597e-06,3.91359973148653e-05,0.00103718717646295,0.00226728779714013,3.9621714131849e-05,0.00103718717646295,0.00226728779714013,6.18497735782597e-06,3.91359973148653e-05,0.00122814669827513,0.00226728779714013,3.9621714131849e-05,0.00103718717646295,0.00226728779714013,0,0,0,0,0,0,0,NaN,NaN,NaN,NaN,NaN,NaN,,NaN,0,0,0,0.813430500030518,0.60377836227417,0.914330673217773,0.241762149333954,NaN,0.29412164414729,0.196510165929794,0.225674279928207,0.311725364565849,0.453139250725508,NaN,0.61807347697883,0.171033540530357,0.171033540077403,0.271127052906495,0.5,6.55651092529297e-05,7.80820846557617e-05,-0.00119364261627197,-0.00154135329648852,NaN,2.09895801544189,-0.538061082363129
1777642666.91754,73,model,0.0101768970489502,-1.3628059578327e-05,0,0,0.115861021064885,0,1,0.0968894958496094,0,,,,0,0,0,0,0,0,0,0,2.09902358055115,-0.537983000278473,1.08505821228027,6.94413186208933e-05,0,9.81,2.09895205497742,-0.538084805011749,1.08591663837433,-0.000817467691376805,2.09895297444682,-0.538116752093945,1.08515021551782,-0.00153011763175422,2.09895297444682,-0.538116752093945,1.08515021551782,-0.00153011763175422,-9.19469399729422e-07,3.19470821958934e-05,0.000766422856512072,0.000712649940377417,3.19603110874754e-05,0.000766422856512072,0.000712649940377417,-9.19469399729422e-07,3.19470821958934e-05,0.000848465719617591,0.000712649940377417,3.19603110874754e-05,0.000766422856512072,0.000712649940377417,0,0,0,0,0,0,0,NaN,NaN,NaN,NaN,NaN,NaN,,NaN,0,0,0,0.813311290740967,0.603443741798401,0.914432060718536,0.2421266913414,NaN,0.29392387377303,0.196711882948875,0.225198068618774,0.312242725431919,0.453695328533649,NaN,0.617132117816954,0.169688222484064,0.169688222063457,0.270672985404774,0.5,6.84261322021484e-05,0.00010216236114502,-0.000185847282409668,0.000833703945318121,NaN,2.09895515441895,-0.538085162639618
1777642666.92817,74,model,0.0106079578399658,0.000791713340029721,0,0,-0.0158452127518098,0,1,0.107497453689575,0,,,,0,0,0,0,0,0,0,0,2.09902358055115,-0.537983000278473,1.08505821228027,-6.94413186208936e-05,0,9.81,2.09894227981567,-0.538090884685516,1.08589863777161,-0.000734444183763117,2.09895878817623,-0.538105738837008,1.08509467750635,-0.000345280340280904,2.09895878817623,-0.538105738837008,1.08509467750635,-0.000345280340280904,-1.65083605518923e-05,1.48541514920497e-05,0.000803960265253423,-0.000389163843482213,2.22074713702402e-05,0.000803960265253423,-0.000389163843482213,-1.65083605518923e-05,1.48541514920497e-05,0.00082028272371176,-0.000389163843482213,2.22074713702402e-05,0.000803960265253423,-0.000389163843482213,0,0,0,0,0,0,0,NaN,NaN,NaN,NaN,NaN,NaN,,NaN,0,0,0,0.813225698471069,0.603074133396149,0.91442449092865,0.242408084869385,NaN,0.293743390634346,0.196864128112793,0.224819564223289,0.312597797751427,0.454058637470007,NaN,0.616516668732085,0.168759699187343,0.168759698861798,0.270431378801013,0.5,7.53402709960938e-05,0.000109255313873291,-0.000300288200378418,0.00158362055663019,NaN,2.09894824028015,-0.538092255592346
1777642666.93793,75,model,0.0108611583709717,-0.00162640371812502,0,0,0.0767007876102816,0,1,0.118358612060547,0,,,,0,0,0,0,0,0,0,0,2.09902358055115,-0.537983000278473,1.08505821228027,6.94413186208936e-05,0,9.81,2.09894299507141,-0.538096070289612,1.08591771125793,-0.000742825388442725,2.09896826978405,-0.538087774139278,1.08523679114252,-0.000980315081576839,2.09896826978405,-0.538087774139278,1.08523679114252,-0.000980315081576839,-2.52747126383568e-05,-8.29615033370867e-06,0.000680920115410544,0.000237489693134114,2.66014512632489e-05,0.000680920115410544,0.000237489693134114,-2.52747126383568e-05,-8.29615033370867e-06,0.000729536329279417,0.000237489693134114,2.66014512632489e-05,0.000680920115410544,0.000237489693134114,0,0,0,0,0,0,0,NaN,NaN,NaN,NaN,NaN,NaN,,NaN,0,0,0,0.813082587718964,0.602706134319305,0.914257001876831,0.242431449890137,NaN,0.293572836558457,0.196990728378296,0.224506177902222,0.312849675804377,0.454274179041386,NaN,0.616109288574643,0.168117630704855,0.16811763048346,0.270302756123459,0.5,8.48770141601562e-05,0.000114738941192627,0.000416874885559082,-0.000915472279302776,NaN,2.09893870353699,-0.538097739219666
1777642666.95028,76,model,0.0108435153961182,-0.00154030376848346,0,0,0.0401789151084533,0,1,0.129202127456665,0,,,,0,0,0,0,0,0,0,0,2.09902358055115,-0.537983000278473,1.08505821228027,-6.94413186208934e-05,0,9.81,2.09894514083862,-0.538097143173218,1.08594989776611,-0.000745195604395121,2.09897354543059,-0.538077780656066,1.08526801922412,-0.00124464288342787,2.09897354543059,-0.538077780656066,1.08526801922412,-0.00124464288342787,-2.84045919696219e-05,-1.93625171517331e-05,0.000681878541995751,0.000499447279032753,3.43762696552704e-05,0.000681878541995751,0.000499447279032753,-2.84045919696219e-05,-1.93625171517331e-05,0.000746614012707919,0.000499447279032753,3.43762696552704e-05,0.000681878541995751,0.000499447279032753,0,0,0,0,0,0,0,NaN,NaN,NaN,NaN,NaN,NaN,,NaN,0,0,0,0.812899541854858,0.602253794670105,0.914104533195496,0.242526698112488,NaN,0.293399293631683,0.197082221508026,0.224237003326416,0.313011811614037,0.454386992007494,NaN,0.61583688568557,0.16767306372984,0.167673063562494,0.270234263520387,0.5,8.41617584228516e-05,0.000119984149932861,0.000802159309387207,-0.000821220804937184,NaN,2.09893941879272,-0.538102984428406
1777642666.96111,77,model,0.0111289024353027,-0.00268258153756005,0,0,-0.0633045931529708,0,1,0.140331029891968,0,,,,0,0,0,0,0,0,0,0,2.09902358055115,-0.537983000278473,1.08505821228027,6.94413186208938e-05,0,9.81,2.09894824028015,-0.538108766078949,1.08596360683441,-0.000794044695794582,2.09897671277638,-0.538071782917558,1.08508279149606,-0.0019431979126353,2.09897671277638,-0.538071782917558,1.08508279149606,-0.0019431979126353,-2.84724962260618e-05,-3.69831613914462e-05,0.00088081533835016,0.00114915321684072,4.66737320968536e-05,0.00088081533835016,0.00114915321684072,-2.84724962260618e-05,-3.69831613914462e-05,0.000995357697506442,0.00114915321684072,4.66737320968536e-05,0.00088081533835016,0.00114915321684072,0,0,0,0,0,0,0,NaN,NaN,NaN,NaN,NaN,NaN,,NaN,0,0,0,0.81268949508667,0.601823925971985,0.913784456253052,0.242413330078125,NaN,0.293239295304484,0.197158098220825,0.224012055397034,0.313088127911091,0.454412864148617,NaN,0.615653236976711,0.167364967902373,0.167364967767221,0.270197785412874,0.5,8.22544097900391e-05,0.000121235847473145,0.00010371208190918,-0.00196183094521984,NaN,2.09894132614136,-0.538104236125946
1777642666.97176,78,model,0.0108301639556885,0.0016887934877753,0,0,-0.0141894775559131,0,1,0.151161193847656,0,,,,0,0,0,0,0,0,0,0,2.09902358055115,-0.537983000278473,1.08505821228027,-6.94413186208933e-05,0,9.81,2.09893536567688,-0.538110852241516,1.08594524860382,-0.000677068601362407,2.0989766252985,-0.538071948104432,1.08504811200392,-9.61859531520065e-05,2.0989766252985,-0.538071948104432,1.08504811200392,-9.61859531520065e-05,-4.12596216250449e-05,-3.89041370845167e-05,0.00089713659989954,-0.000580882648210401,5.67088023055746e-05,0.00089713659989954,-0.000580882648210401,-4.12596216250449e-05,-3.89041370845167e-05,0.000906355752513864,-0.000580882648210401,5.67088023055746e-05,0.00089713659989954,-0.000580882648210401,0,0,0,0,0,0,0,NaN,NaN,NaN,NaN,NaN,NaN,,NaN,0,0,0,0.812369358539581,0.601410627365112,0.913428556919098,0.242250192165375,NaN,0.293095603386751,0.197201818227768,0.223827921748161,0.313118742346764,0.454422218352556,NaN,0.615528609523281,0.167151316101702,0.167151315973759,0.270178356239344,0.5,7.91549682617188e-05,0.000133156776428223,-0.000160098075866699,0.00245749001624063,NaN,2.09894442558289,-0.538116157054901
1777642666.98129,79,model,0.010551929473877,0.00133141404293513,0,0,0.0185600427143001,0,1,0.161713123321533,0,,,,0,0,0,0,0,0,0,0,2.09902358055115,-0.537983000278473,1.08505821228027,6.94413186208939e-05,0,9.81,2.0989248752594,-0.538111805915833,1.08593356609344,-0.000581342610530555,2.09898408439812,-0.53805781786865,1.08508657412741,0.000619109870226475,2.09898408439812,-0.53805781786865,1.08508657412741,0.000619109870226475,-5.92091387239257e-05,-5.39880471821519e-05,0.000846991966031219,-0.00120045248075703,8.01275941668745e-05,0.000846991966031219,-0.00120045248075703,-5.92091387239257e-05,-5.39880471821519e-05,0.000815692715719682,-0.00120045248075703,8.01275941668745e-05,0.000846991966031219,-0.00120045248075703,0,0,0,0,0,0,0,NaN,NaN,NaN,NaN,NaN,NaN,,NaN,0,0,0,0.812258613109589,0.601041257381439,0.913258624076843,0.242370533943176,NaN,0.292961573345789,0.197246566414833,0.223655887842178,0.313130320549011,0.454415248334408,NaN,0.615443594707146,0.167003092895837,0.167003092810311,0.270168007356733,0.5,9.1552734375e-05,0.000133991241455078,-3.52859497070312e-05,0.00198742398060858,NaN,2.09893202781677,-0.538116991519928
1777642666.99295,80,model,0.0106663703918457,0.000237932537252531,0,0,-0.017814388255918,0,0,0.172379493713379,0,,,,0,0,0,0,0,0,0,0,2.09902358055115,-0.537983000278473,1.08505821228027,-6.94413186208932e-05,0,9.81,2.09891676902771,-0.53811913728714,1.08592474460602,-0.000538872962351888,2.09898707043304,-0.538052161644959,1.08503907041155,0.000418788763622032,2.09898707043304,-0.538052161644959,1.08503907041155,0.000418788763622032,-7.03014053304862e-05,-6.69756421808332e-05,0.000885674194464947,-0.00095766172597392,9.70980135583438e-05,0.000885674194464947,-0.00095766172597392,-7.03014053304862e-05,-6.69756421808332e-05,0.00087120448861415,-0.00095766172597392,9.70980135583438e-05,0.000885674194464947,-0.00095766172597392,0,0,0,0,0,0,0,NaN,NaN,NaN,NaN,NaN,NaN,,NaN,0,0,0,0.803054940700531,0.590215563774109,0.893639397621155,0.228759694099426,NaN,0.289188558971145,0.195256382226944,0.222603359222412,0.30730799728632,0.447203842550516,NaN,0.5,NaN,NaN,NaN,0.5,0.000101566314697266,0.000134110450744629,-0.000241398811340332,0.000800997644546442,NaN,2.09892201423645,-0.538117110729218
1777642667.00363,81,model,0.0106778144836426,-0.000675646838886833,0,0,0.0478700756028002,0,0,0.183057308197021,0,,,,0,0,0,0,0,0,0,0,2.09902358055115,-0.537983000278473,1.08505821228027,6.94413186208939e-05,0,9.81,2.09891533851624,-0.538122713565826,1.08592855930328,-0.000524772913195193,2.09898909224023,-0.538048331513702,1.0851668573582,-0.000135019482688659,2.09898909224023,-0.538048331513702,1.0851668573582,-0.000135019482688659,-7.37537239898778e-05,-7.43820521241778e-05,0.000761701945079629,-0.000389753430506533,0.0001047487540765,0.000761701945079629,-0.000389753430506533,-7.37537239898778e-05,-7.43820521241778e-05,0.000775875315830526,-0.000389753430506533,0.0001047487540765,0.000761701945079629,-0.000389753430506533,0,0,0,0,0,0,0,NaN,NaN,NaN,NaN,NaN,NaN,,NaN,0,0,0,0.797033083438873,0.583062171936035,0.880830717086792,0.219916212558746,NaN,0.285700129947753,0.19285660982132,0.221953847408295,0.299983119159937,0.437311293184757,NaN,0.5,NaN,NaN,NaN,0.5,0.000109434127807617,0.00014108419418335,0.00016486644744873,-0.00015373423229903,NaN,2.09891414642334,-0.538124084472656
1777642667.01467,82,model,0.0110385417938232,0.00317127752005577,0,0,-0.0379800322732099,0,0,0.194095849990845,0,,,,0,0,0,0,0,0,0,0,2.09902358055115,-0.537983000278473,1.08505821228027,-6.94413186208933e-05,0,9.81,2.09887433052063,-0.538150370121002,1.08593881130219,-0.000440947886090726,2.0989884191334,-0.538049606689324,1.08506204631481,0.00152032559095934,2.0989884191334,-0.538049606689324,1.08506204631481,0.00152032559095934,-0.000114088612769514,-0.000100763431677753,0.000876764987375545,-0.00196127347705006,0.000152215244726503,0.000876764987375545,-0.00196127347705006,-0.000114088612769514,-0.000100763431677753,0.000800277329875394,-0.00196127347705006,0.000152215244726503,0.000876764987375545,-0.00196127347705006,0,0,0,0,0,0,0,NaN,NaN,NaN,NaN,NaN,NaN,,NaN,0,0,0,0.793028426170349,0.578293800354004,0.872399938106537,0.214089024066925,NaN,0.283514093659611,0.190400972962379,0.221779235601425,0.292600536286831,0.427903474867344,NaN,0.5,NaN,NaN,NaN,0.5,0.000110864639282227,0.000144660472869873,-0.000244140625,0.00367897580144927,NaN,2.09891271591187,-0.538127660751343
1777642667.02506,83,model,0.0103158950805664,0.00217838886558692,0,0,0.000323295714376342,0,0,0.204411745071411,0,,,,0,0,0,0,0,0,0,0,2.09902358055115,-0.537983000278473,1.08505821228027,6.94413186208938e-05,0,9.81,2.09884285926819,-0.538174569606781,1.08594906330109,-0.000395084731280804,2.09899551846201,-0.538036158971236,1.08506288008598,0.00182624292143875,2.09899551846201,-0.538036158971236,1.08506288008598,0.00182624292143875,-0.000152659193823901,-0.000138410635545205,0.000886183215109249,-0.00222132765271955,0.000206063906327603,0.000886183215109249,-0.00222132765271955,-0.000152659193823901,-0.000138410635545205,0.000794211909425872,-0.00222132765271955,0.000206063906327603,0.000886183215109249,-0.00222132765271955,0,0,0,0,0,0,0,NaN,NaN,NaN,NaN,NaN,NaN,,NaN,0,0,0,0.790461313724518,0.575087547302246,0.866881799697876,0.210424113273621,NaN,0.282503192758022,0.188200861215591,0.221926935911179,0.285978622302413,0.419978817552328,NaN,0.5,NaN,NaN,NaN,0.5,0.000151395797729492,0.000171244144439697,-0.000336170196533203,0.00260592883569188,NaN,2.09887218475342,-0.538154244422913
1777642667.03627,84,model,0.0107600688934326,-0.00068782481533818,0,0,-0.0304928429866296,1,1,0,0,,,,0,0,0,0,0,0,0,0,2.09902358055115,-0.537983000278473,1.08505821228027,-6.94413186208933e-05,0,9.81,2.09886765480042,-0.538154006004333,1.0859249830246,-0.000404070073273033,2.09900919981951,-0.538010242575851,1.08501451107972,0.000540248226711833,2.09900919981951,-0.538010242575851,1.08501451107972,0.000540248226711833,-0.000141545019096245,-0.000143763428482879,0.000910471944881586,-0.000944318299984866,0.000201749636431168,0.000910471944881586,-0.000944318299984866,-0.000141545019096245,-0.000143763428482879,0.000898060757839739,-0.000944318299984866,0.000201749636431168,0.000910471944881586,-0.000944318299984866,0,0,0,0,0,0,0,NaN,NaN,NaN,NaN,NaN,NaN,,NaN,0,0,0,0.809873533248901,0.603955388069153,0.893650424480438,0.220357584953308,NaN,0.28820470498671,0.18891516327858,0.227644571065903,0.290891633868217,0.42121889218688,NaN,0.751322499003144,0.167,0.167,0.435081870252738,0.5,0.000182628631591797,0.000195205211639404,-0.000824570655822754,-0.000305270688841119,NaN,2.09884095191956,-0.538178205490112
1777642667.0469,85,model,0.0106441974639893,-0.000994299285546293,0,0,0.0436991251498666,0,1,0.0106441974639893,0,,,,0,0,0,0,0,0,0,0,2.09902358055115,-0.537983000278473,1.08505821228027,6.94413186208938e-05,0,9.81,2.098872423172,-0.538156270980835,1.08590817451477,-0.000405381171731278,2.09901440276468,-0.538000387349742,1.085105495966,-0.000235500605868703,2.09901440276468,-0.538000387349742,1.085105495966,-0.000235500605868703,-0.000141979592687136,-0.000155883631092868,0.000802678548767588,-0.000169880565862576,0.000210850447432066,0.000802678548767588,-0.000169880565862576,-0.000141979592687136,-0.000155883631092868,0.000832390149393306,-0.000169880565862576,0.000210850447432066,0.000802678548767588,-0.000169880565862576,0,0,0,0,0,0,0,NaN,NaN,NaN,NaN,NaN,NaN,,NaN,0,0,0,0.811739635467529,0.604798853397369,0.901972723007202,0.228553879261017,NaN,0.291251967718658,0.190613776445389,0.229759761095047,0.296754108309746,0.429666658490896,NaN,0.684900502422921,0.167,0.167,0.348568946453087,0.5,0.000157833099365234,0.00017470121383667,-0.000469565391540527,-0.000602906831772998,NaN,2.09886574745178,-0.53815770149231
1777642667.05702,86,model,0.0106284618377686,-0.00129297234980919,0,0,-0.0668908554205693,0,1,0.0212726593017578,0,,,,0,0,0,0,0,0,0,0,2.09902358055115,-0.537983000278473,1.08505821228027,-6.94413186208933e-05,0,9.81,2.09887886047363,-0.538165390491486,1.08587217330933,-0.000421158474637195,2.09901536019878,-0.537998572393273,1.0849681557865,-0.000760547553072761,2.09901536019878,-0.537998572393273,1.0849681557865,-0.000760547553072761,-0.000136499725149619,-0.000166818098212951,0.00090401752282343,0.000339389078435566,0.000215546869282083,0.00090401752282343,0.000339389078435566,-0.000136499725149619,-0.000166818098212951,0.000970040226783123,0.000339389078435566,0.000215546869282083,0.00090401752282343,0.000339389078435566,0,0,0,0,0,0,0,NaN,NaN,NaN,NaN,NaN,NaN,,NaN,0,0,0,0.812857818603516,0.605182647705078,0.907154512405395,0.233783829212189,NaN,0.29301538123886,0.192302733659744,0.229943999052048,0.301645004689693,0.437806995213032,NaN,0.654265367583519,0.167,0.167,0.309663511390014,0.5,0.000153064727783203,0.000176966190338135,-0.00113129615783691,-0.000900291110156104,NaN,2.09887051582336,-0.538159966468811
1777642667.06806,87,model,0.0110387802124023,-0.00100209433200769,0,0,-0.0887536366768946,0,1,0.0323114395141602,0,,,,0,0,0,0,0,0,0,0,2.09902358055115,-0.537983000278473,1.08505821228027,6.94413186208938e-05,0,9.81,2.09888243675232,-0.538187503814697,1.085808634758,-0.000436251051723957,2.09901386080861,-0.538001409337861,1.08482057438786,-0.00086894766337318,2.09901386080861,-0.538001409337861,1.08482057438786,-0.00086894766337318,-0.000131424056289742,-0.000186094476836263,0.000988060370131549,0.000432696611649223,0.000227823257988757,0.000988060370131549,0.000432696611649223,-0.000131424056289742,-0.000186094476836263,0.00106400971825765,0.000432696611649223,0.000227823257988757,0.000988060370131549,0.000432696611649223,0,0,0,0,0,0,0,NaN,NaN,NaN,NaN,NaN,NaN,,NaN,0,0,0,0.813495349884033,0.605290651321411,0.910309207439423,0.237136828899384,NaN,0.294071925803499,0.19368788599968,0.229338773488998,0.305202999651432,0.443818183243275,NaN,0.638266851591484,0.190957989692704,0.190957989676528,0.290610850092914,0.5,0.000146865844726562,0.000186383724212646,-0.00210690498352051,-0.000594639452174306,NaN,2.09887671470642,-0.538169384002686
1777642667.07949,88,model,0.0114336013793945,-0.000814645705136671,0,0,-0.0587943285221364,0,1,0.0437450408935547,0,,,,0,0,0,0,0,0,0,0,2.09902358055115,-0.537983000278473,1.08505821228027,-6.94413186208933e-05,0,9.81,2.09888195991516,-0.538219273090363,1.08572125434875,-0.00044989975867793,2.09901197890356,-0.538004970454624,1.08476647313462,-0.000827154225193943,2.09901197890356,-0.538004970454624,1.08476647313462,-0.000827154225193943,-0.000130018988403258,-0.000214302635738628,0.000954781214129952,0.000377254466516013,0.00025066024222028,0.000954781214129952,0.000377254466516013,-0.000130018988403258,-0.000214302635738628,0.00102566517856103,0.000377254466516013,0.00025066024222028,0.000954781214129952,0.000377254466516013,0,0,0,0,0,0,0,NaN,NaN,NaN,NaN,NaN,NaN,,NaN,0,0,0,0.813836586475372,0.605229794979096,0.912204217910767,0.239299762248993,NaN,0.294585925314385,0.194735616445541,0.228509270548821,0.307660465627909,0.447769546508789,NaN,0.629305361504238,0.183200941485184,0.183200941471757,0.280891559321073,0.5,0.000143289566040039,0.000208795070648193,-0.00280320644378662,-0.0003930970269721,NaN,2.09888029098511,-0.538191795349121
1777642667.09012,89,model,0.0111138820648193,-0.000791796294391673,0,0,-0.000763353293571015,0,1,0.054858922958374,0,,,,0,0,0,0,0,0,0,0,2.09902358055115,-0.537983000278473,1.08505821228027,6.94413186208938e-05,0,9.81,2.0988781452179,-0.53825306892395,1.08562958240509,-0.000463764066807926,2.09901063033436,-0.538007522901153,1.08484540766264,-0.000795926809314138,2.09901063033436,-0.538007522901153,1.08484540766264,-0.000795926809314138,-0.000132485116469461,-0.000245546022797694,0.000784174742450183,0.000332162742506212,0.000279007446849886,0.000784174742450183,0.000332162742506212,-0.000132485116469461,-0.000245546022797694,0.00084376196512701,0.000332162742506212,0.000279007446849886,0.000784174742450183,0.000332162742506212,0,0,0,0,0,0,0,NaN,NaN,NaN,NaN,NaN,NaN,,NaN,0,0,0,0.813988280296326,0.60505223274231,0.913358640670776,0.240711081027985,NaN,0.294729265970177,0.195490807294846,0.227641680240631,0.309379526913166,0.450333265215158,NaN,0.62405538171779,0.177992744889288,0.177992744875279,0.275830174170199,0.5,0.000143766403198242,0.000240564346313477,-0.00284492969512939,-0.000356634904164821,NaN,2.09887981414795,-0.538223564624786
1777642667.10131,90,model,0.0106570720672607,-0.00260170601064179,0,0,0.066242446738453,0,1,0.0655159950256348,0,,,,0,0,0,0,0,0,0,0,2.09902358055115,-0.537983000278473,1.08505821228027,-6.94413186208934e-05,0,9.81,2.0988781452179,-0.538284420967102,1.08556294441223,-0.000539168599061668,2.09900972247464,-0.538009242333438,1.08503181586441,-0.0016863153054134,2.09900972247464,-0.538009242333438,1.08503181586441,-0.0016863153054134,-0.000131577256748727,-0.000275178633663997,0.000531128547823556,0.00114714670635174,0.000305017794429612,0.000531128547823556,0.00114714670635174,-0.000131577256748727,-0.000275178633663997,0.000628063466214922,0.00114714670635174,0.000305017794429612,0.000531128547823556,0.00114714670635174,0,0,0,0,0,0,0,NaN,NaN,NaN,NaN,NaN,NaN,,NaN,0,0,0,0.813940894603729,0.604797542095184,0.913917732238769,0.241380620002747,NaN,0.294651246967826,0.196021527051926,0.226844363808632,0.310599745750427,0.451964230835438,NaN,0.620879399654982,0.174458456753367,0.174458456738341,0.273166108158958,0.5,0.000147581100463867,0.000274300575256348,-0.00217258930206299,-0.00215250995825045,NaN,2.09887599945068,-0.538257300853729
1777642667.1125,91,model,0.0112011432647705,-9.81785349694017e-05,0,0,-0.0952450805167415,0,1,0.0767171382904053,0,,,,0,0,0,0,0,0,0,0,2.09902358055115,-0.537983000278473,1.08505821228027,6.94413186208936e-05,0,9.81,2.09886717796326,-0.538321077823639,1.08545672893524,-0.0005240737227723,2.09900504555905,-0.538018100526777,1.08484475677612,-0.00086440889102102,2.09900504555905,-0.538018100526777,1.08484475677612,-0.00086440889102102,-0.000137867595791707,-0.000302977296862239,0.000611972159118679,0.000340335168248719,0.000332870419808272,0.000611972159118679,0.000340335168248719,-0.000137867595791707,-0.000302977296862239,0.00066345063836136,0.000340335168248719,0.000332870419808272,0.000611972159118679,0.000340335168248719,0,0,0,0,0,0,0,NaN,NaN,NaN,NaN,NaN,NaN,,NaN,0,0,0,0.813798260688782,0.604434490203857,0.914086294174194,0.241835403442383,NaN,0.294489537652231,0.196389526128769,0.226178356409073,0.311438405454159,0.453018257021904,NaN,0.618909293357235,0.172042724436949,0.172042724407305,0.271755984894623,0.5,0.00014805793762207,0.000306606292724609,-0.00309252738952637,0.000423188648710493,NaN,2.09887552261353,-0.538289606571198
1777642667.12352,92,model,0.0105507373809814,-0.00235409557034535,0,0,-0.077449959665958,0,1,0.0872678756713867,0,,,,0,0,0,0,0,0,0,0,2.09902358055115,-0.537983000278473,1.08505821228027,-6.94413186208936e-05,0,9.81,2.09885931015015,-0.538371384143829,1.08533155918121,-0.000599304330535233,2.0990047806339,-0.538018602748,1.08475367994733,-0.0015958109889974,2.0990047806339,-0.538018602748,1.08475367994733,-0.0015958109889974,-0.000145470483750909,-0.000352781395829838,0.000577879233881085,0.000996506658462171,0.000381597136894883,0.000577879233881085,0.000996506658462171,-0.000145470483750909,-0.000352781395829838,0.000667909782993194,0.000996506658462171,0.000381597136894883,0.000577879233881085,0.000996506658462171,0,0,0,0,0,0,0,NaN,NaN,NaN,NaN,NaN,NaN,,NaN,0,0,0,0.81366993188858,0.604122281074524,0.913966488838196,0.241979467868805,NaN,0.294293586465663,0.196650296449661,0.225638755559921,0.312008471727371,0.45365826189518,NaN,0.617661715150404,0.1703833890353,0.170383389006147,0.271007372286379,0.5,0.000158786773681641,0.000342845916748047,-0.00387227535247803,-0.00184632005402818,NaN,2.09886479377747,-0.538325846195221
1777642667.13359,93,model,0.0110411643981934,-0.00400112149983384,0,0,-0.0776070280149287,0,1,0.0983090400695801,0,,,,0,0,0,0,0,0,0,0,2.09902358055115,-0.537983000278473,1.08505821228027,6.94413186208934e-05,0,9.81,2.09885191917419,-0.538435101509094,1.08518576622009,-0.000735434237867594,2.09900134829534,-0.538025099246282,1.08467984063025,-0.00277249853279345,2.09900134829534,-0.538025099246282,1.08467984063025,-0.00277249853279345,-0.000149429121141686,-0.00041000226281207,0.000505925589843415,0.00203706429492585,0.000436383910973119,0.000505925589843415,0.00203706429492585,-0.000149429121141686,-0.00041000226281207,0.000656197611630299,0.00203706429492585,0.000436383910973119,0.000505925589843415,0.00203706429492585,0,0,0,0,0,0,0,NaN,NaN,NaN,NaN,NaN,NaN,,NaN,0,0,0,0.813451540470123,0.603771805763245,0.913651597499847,0.241926777362824,NaN,0.294078284072311,0.196823060512543,0.225204610228539,0.312381008207798,0.45401187390089,NaN,0.616857838415981,0.169239754353512,0.169239754311681,0.270609319665126,0.5,0.000167369842529297,0.000394046306610107,-0.00466358661651611,-0.00342132145306095,NaN,2.09885621070862,-0.538377046585083
1777642667.14535,94,model,0.0107722282409668,-0.00628112132119374,0,0,0.0691572472300613,0,1,0.109081268310547,0,,,,0,0,0,0,0,0,0,0,2.09902358055115,-0.537983000278473,1.08505821228027,-6.94413186208938e-05,0,9.81,2.09885215759277,-0.538498342037201,1.08507442474365,-0.000944446481298655,2.09899386223073,-0.538039270263673,1.08491803576579,-0.00448279355702336,2.09899386223073,-0.538039270263673,1.08491803576579,-0.00448279355702336,-0.000141704637958373,-0.000459071773527886,0.000156388977860189,0.00353834707572471,0.000480444687418804,0.000156388977860189,0.00353834707572471,-0.000141704637958373,-0.000459071773527886,0.000381289229448785,0.00353834707572471,0.000480444687418804,0.000156388977860189,0.00353834707572471,0,0,0,0,0,0,0,NaN,NaN,NaN,NaN,NaN,NaN,,NaN,0,0,0,0.813159537315369,0.603407084941864,0.913330268859863,0.241708922386169,NaN,0.29384026335139,0.196928530931473,0.224841975569725,0.312642039299011,0.454169327020645,NaN,0.616332225439079,0.16844970991794,0.168449709835592,0.270397489869877,0.5,0.000175237655639648,0.000458896160125732,-0.0039680004119873,-0.00556903856340796,NaN,2.09884834289551,-0.538441896438599
1777642667.155,95,model,0.0106582641601562,-0.00481407433897636,0,0,0.104320871745282,0,1,0.119739532470703,0,,,,0,0,0,0,0,0,0,0,2.09902358055115,-0.537983000278473,1.08505821228027,6.94413186208933e-05,0,9.81,2.09885001182556,-0.538547098636627,1.08499455451965,-0.00107814522925764,2.09898087276644,-0.538063874977321,1.08515876218539,-0.00457801775027415,2.09898087276644,-0.538063874977321,1.08515876218539,-0.00457801775027415,-0.000130860940882993,-0.000483223659305754,-0.00016420766573777,0.00349987252101651,0.000500629294749743,-0.00016420766573777,0.00349987252101651,-0.000130860940882993,-0.000483223659305754,4.23023048396898e-05,0.00349987252101651,0.000500629294749743,-0.00016420766573777,0.00349987252101651,0,0,0,0,0,0,0,NaN,NaN,NaN,NaN,NaN,NaN,,NaN,0,0,0,0.812879037857056,0.602957665920258,0.913187754154205,0.241720545291901,NaN,0.293603783600299,0.196991890668869,0.224532031416893,0.312833213746548,0.454245732724667,NaN,0.61598433133701,0.16790305421962,0.167903054030629,0.270284711204221,0.5,0.000175952911376953,0.000523984432220459,-0.00284707546234131,-0.00389929884113371,NaN,2.09884762763977,-0.538506984710693
1777642667.16572,96,model,0.0106217861175537,-0.00566668282807248,0,0,0.0631635394572768,0,1,0.130361318588257,0,,,,0,0,0,0,0,0,0,0,2.09902358055115,-0.537983000278473,1.08505821228027,-6.94413186208938e-05,0,9.81,2.09885191917419,-0.538591384887695,1.08494389057159,-0.00123059179168195,2.09896972301603,-0.538085005356184,1.08525399444478,-0.00505068441938227,2.09896972301603,-0.538085005356184,1.08525399444478,-0.00505068441938227,-0.000117803841838349,-0.000506379531511447,-0.000310103873185419,0.00382009262770033,0.000519901889865412,-0.000310103873185419,0.00382009262770033,-0.000117803841838349,-0.000506379531511447,-9.12429189667761e-05,0.00382009262770033,0.000519901889865412,-0.000310103873185419,0.00382009262770033,0,0,0,0,0,0,0,NaN,NaN,NaN,NaN,NaN,NaN,,NaN,0,0,0,0.8126589179039,0.602506995201111,0.913042318820953,0.24170081615448,NaN,0.293386553259049,0.197044387459755,0.224268236160278,0.312962824046612,0.454255943745375,NaN,0.615751738128174,0.167524385643559,0.167524385341723,0.270224653349714,0.5,0.000178813934326172,0.000573933124542236,-0.00212287902832031,-0.0046222930541262,NaN,2.09884476661682,-0.538556933403015
1777642667.17727,97,model,0.0106525421142578,-0.00532678250550696,0,0,0.00598138319807201,0,1,0.141013860702515,0,,,,0,0,0,0,0,0,0,0,2.09902358055115,-0.537983000278473,1.08505821228027,6.94413186208933e-05,0,9.81,2.09885215759277,-0.538634419441223,1.0848947763443,-0.00135914888232946,2.0989584755674,-0.538106323185571,1.08521272081154,-0.00510943936775266,2.0989584755674,-0.538106323185571,1.08521272081154,-0.00510943936775266,-0.000106317974622794,-0.000528096255652422,-0.000317944467242981,0.00375029048542319,0.000538692089195675,-0.000317944467242981,0.00375029048542319,-0.000106317974622794,-0.000528096255652422,-0.000103757967472756,0.00375029048542319,0.000538692089195675,-0.000317944467242981,0.00375029048542319,0,0,0,0,0,0,0,NaN,NaN,NaN,NaN,NaN,NaN,,NaN,0,0,0,0.812451910972595,0.602039873600006,0.912890207767487,0.241726326942444,NaN,0.293193373100479,0.197090268135071,0.22404158949852,0.313035504460335,0.454233595728874,NaN,0.615594956284393,0.167261879714557,0.167261879283605,0.270192666778844,0.5,0.000177621841430664,0.000619590282440186,-0.0020148754119873,-0.00413483032025397,NaN,2.09884595870972,-0.538602590560913
1777642667.18789,98,model,0.0111351013183594,-0.00652388121759869,0,0,0.00446690914363332,0,1,0.152148962020874,0,,,,0,0,0,0,0,0,0,0,2.09902358055115,-0.537983000278473,1.08505821228027,-6.94413186208938e-05,0,9.81,2.0988552570343,-0.538681447505951,1.08485293388367,-0.00152150774374604,2.09894795926823,-0.538126251742903,1.08518005164413,-0.00573280996295184,2.09894795926823,-0.538126251742903,1.08518005164413,-0.00573280996295184,-9.27022339256567e-05,-0.000555195763047744,-0.000327117760464901,0.0042113022192058,0.00056288190544818,-0.000327117760464901,0.0042113022192058,-9.27022339256567e-05,-0.000555195763047744,-8.51064373089943e-05,0.0042113022192058,0.00056288190544818,-0.000327117760464901,0.0042113022192058,0,0,0,0,0,0,0,NaN,NaN,NaN,NaN,NaN,NaN,,NaN,0,0,0,0.812219512462616,0.601601600646973,0.912610721588135,0.241587328910828,NaN,0.293017866609648,0.197133123874664,0.223843821287155,0.313064174294472,0.454173089563847,NaN,0.615488580952903,0.167079804502505,0.16707980394225,0.27017562970325,0.5,0.000178337097167969,0.000664353370666504,-0.00197303295135498,-0.00520934187807143,NaN,2.09884524345398,-0.538647353649139
1777642667.19887,99,model,0.0114002227783203,-0.00765181068527573,0,0,0.0285722056929552,0,1,0.163549184799194,0,,,,0,0,0,0,0,0,0,0,2.09902358055115,-0.537983000278473,1.08505821228027,6.94413186208933e-05,0,9.81,2.0988621711731,-0.538729906082153,1.08482611179352,-0.00171160197351128,2.0989360243478,-0.538148865905311,1.08520656679568,-0.00659598993339654,2.0989360243478,-0.538148865905311,1.08520656679568,-0.00659598993339654,-7.38531747037641e-05,-0.000581040176842351,-0.000380455002163771,0.00488438795988526,0.000585714929397241,-0.000380455002163771,0.00488438795988526,-7.38531747037641e-05,-0.000581040176842351,-9.98161203526586e-05,0.00488438795988526,0.000585714929397241,-0.000380455002163771,0.00488438795988526,0,0,0,0,0,0,0,NaN,NaN,NaN,NaN,NaN,NaN,,NaN,0,0,0,0.81195170879364,0.601154804229736,0.912293565273285,0.241396236419678,NaN,0.292845915280909,0.197167336940765,0.223661639690399,0.313063347280025,0.454081283509731,NaN,0.615416029813526,0.166953469670078,0.166953468942674,0.270166554857319,0.5,0.000176191329956055,0.0007132887840271,-0.00169241428375244,-0.00618143030442297,NaN,2.09884738922119,-0.5386962890625
1777642667.20991,100,model,0.0106070041656494,-0.00681888655361448,0,0,-0.0533859603144349,0,1,0.174156188964844,0,,,,0,0,0,0,0,0,0,0,2.09902358055115,-0.537983000278473,1.08505821228027,-6.94413186208938e-05,0,9.81,2.09886336326599,-0.538781225681305,1.08477580547333,-0.00186389381997287,2.09892427608116,-0.538171125829059,1.08506316659751,-0.0066043260382034,2.09892427608116,-0.538171125829059,1.08506316659751,-0.0066043260382034,-6.09128151638494e-05,-0.000610099852245916,-0.000287361124181373,0.00474043221823053,0.000613133101994725,-0.000287361124181373,0.00474043221823053,-6.09128151638494e-05,-0.000610099852245916,-1.08993638024982e-05,0.00474043221823053,0.000613133101994725,-0.000287361124181373,0.00474043221823053,0,0,0,0,0,0,0,NaN,NaN,NaN,NaN,NaN,NaN,,NaN,0,0,0,0.811703872680664,0.600705504417419,0.911954593658447,0.241299438476563,NaN,0.292692607609009,0.19719672203064,0.223499604463577,0.313030289053917,0.453990907967091,NaN,0.615366344986768,0.166865788384745,0.166865787478582,0.270161721002417,0.5,0.000169515609741211,0.000762462615966797,-0.00221920013427734,-0.00516079785302281,NaN,2.09885406494141,-0.53874546289444
1777642667.22059,101,model,0.0101859569549561,-0.00842465468238442,0,0,0.091819343429066,0,1,0.1843421459198,0,,,,0,0,0,0,0,0,0,0,2.09902358055115,-0.537983000278473,1.08505821228027,6.94413186208933e-05,0,9.81,2.09887266159058,-0.53882884979248,1.08476161956787,-0.00206270441412926,2.09891545896851,-0.53818782447186,1.08523247732041,-0.007415346073389,2.09891545896851,-0.53818782447186,1.08523247732041,-0.007415346073389,-4.27973779344448e-05,-0.000641025320620048,-0.000470857752542742,0.00535264165925974,0.000642452392970949,-0.000470857752542742,0.00535264165925974,-4.27973779344448e-05,-0.000641025320620048,-0.000166011219045622,0.00535264165925974,0.000642452392970949,-0.000470857752542742,0.00535264165925974,0,0,0,0,0,0,0,NaN,NaN,NaN,NaN,NaN,NaN,,NaN,0,0,0,0.811451506614685,0.600311636924744,0.911643576622009,0.241097259521484,NaN,0.292537143504894,0.197221696376801,0.22334136903286,0.31300336265564,0.45388767272234,NaN,0.615332210670253,0.166804923252173,0.166804922221961,0.270159146153011,0.5,0.000168800354003906,0.000814497470855713,-0.0014113187789917,-0.00661672244314104,NaN,2.09885478019714,-0.538797497749329
1777642667.23013,102,model,0.0105433464050293,-0.00790376063961875,0,0,-0.0538555089136585,0,0,0.194885492324829,0,,,,0,0,0,0,0,0,0,0,2.09902358055115,-0.537983000278473,1.08505821228027,-6.94413186208938e-05,0,9.81,2.0988974571228,-0.53886079788208,1.08471608161926,-0.00219712010584772,2.098880099822,-0.538254818682899,1.08509052299884,-0.00754432821456962,2.098880099822,-0.538254818682899,1.08509052299884,-0.00754432821456962,1.73573008046546e-05,-0.000605979199180706,-0.000374441379577206,0.0053472081087219,0.000606227734214555,-0.000374441379577206,0.0053472081087219,1.73573008046546e-05,-0.000605979199180706,-6.51073806860267e-05,0.0053472081087219,0.000606227734214555,-0.000374441379577206,0.0053472081087219,0,0,0,0,0,0,0,NaN,NaN,NaN,NaN,NaN,NaN,,NaN,0,0,0,0.802218389511108,0.589446067810059,0.892001402378082,0.227440762519836,NaN,0.288804824420544,0.195198565721512,0.222288974523544,0.307138988316059,0.446707298606634,NaN,0.5,NaN,NaN,NaN,0.5,0.000160694122314453,0.000864505767822266,-0.00190830230712891,-0.00590515951626003,NaN,2.09886288642883,-0.538847506046295
1777642667.24121,103,model,0.0105810165405273,-0.00593958443646122,0,0,0.0194958115074347,0,0,0.205466508865356,0,,,,0,0,0,0,0,0,0,0,2.09902358055115,-0.537983000278473,1.08505821228027,6.94413186208933e-05,0,9.81,2.09892249107361,-0.538876175880432,1.08466744422913,-0.00223315972834826,2.09884399815527,-0.538323212243383,1.08514209437485,-0.00662430811678816,2.09884399815527,-0.538323212243383,1.08514209437485,-0.00662430811678816,7.84929183401673e-05,-0.000552963637049486,-0.000474650145721789,0.0043911483884399,0.000558506868470346,-0.000474650145721789,0.0043911483884399,7.84929183401673e-05,-0.000552963637049486,-0.00022898171620952,0.0043911483884399,0.000558506868470346,-0.000474650145721789,0.0043911483884399,0,0,0,0,0,0,0,NaN,NaN,NaN,NaN,NaN,NaN,,NaN,0,0,0,0.796251249313354,0.58230859041214,0.87930394411087,0.218731570243835,NaN,0.285367099235123,0.19277560710907,0.221650891900063,0.299791527479887,0.436851845681667,NaN,0.5,NaN,NaN,NaN,0.5,0.000136613845825195,0.000897705554962158,-0.00177145004272461,-0.00381098897196352,NaN,2.09888696670532,-0.538880705833435
1777642667.25388,104,model,0.0116679668426514,-0.00617225085761208,0,0,-0.0037967999481705,1,1,0,0,,,,0,0,0,0,0,0,0,0,2.09902358055115,-0.537983000278473,1.08505821228027,-6.94413186208938e-05,0,9.81,2.09894347190857,-0.538768768310547,1.08460962772369,-0.0022970971185714,2.09885431579291,-0.53830366006261,1.08510458137685,-0.00628436654669461,2.09885431579291,-0.53830366006261,1.08510458137685,-0.00628436654669461,8.91561156572962e-05,-0.000465108247936774,-0.000494953653158881,0.00398726942812321,0.000473576282406449,-0.000494953653158881,0.00398726942812321,8.91561156572962e-05,-0.000465108247936774,-0.000275078739588533,0.00398726942812321,0.000473576282406449,-0.000494953653158881,0.00398726942812321,0,0,0,0,0,0,0,NaN,NaN,NaN,NaN,NaN,NaN,,NaN,0,0,0,0.813537430763245,0.60857892036438,0.901664984226227,0.225618052482605,NaN,0.289593217711169,0.192501068115234,0.226721280217171,0.302464471697807,0.435390947014093,NaN,0.685983044525656,0.167,0.167,0.363121881958829,0.5,0.000112771987915039,0.000915408134460449,-9.38177108764648e-05,-0.00401589507237077,NaN,2.09891080856323,-0.538898408412933
1777642667.26422,105,model,0.0108377933502197,-0.00766134221075974,0,0,0.0122124898794631,0,1,0.0108377933502197,0,,,,0,0,0,0,0,0,0,0,2.09902358055115,-0.537983000278473,1.08505821228027,6.94413186208933e-05,0,9.81,2.09896111488342,-0.538762152194977,1.08457291126251,-0.00237357569858432,2.09886276453179,-0.538287648758006,1.08511251958595,-0.00687247610426324,2.09886276453179,-0.538287648758006,1.08511251958595,-0.00687247610426324,9.8350351633858e-05,-0.000474503436970752,-0.000539608323435914,0.00449890040567893,0.00048458879822336,-0.000539608323435914,0.00449890040567893,9.8350351633858e-05,-0.000474503436970752,-0.000290577118810941,0.00449890040567893,0.00048458879822336,-0.000539608323435914,0.00449890040567893,0,0,0,0,0,0,0,NaN,NaN,NaN,NaN,NaN,NaN,,NaN,0,0,0,0.81395263671875,0.607757747173309,0.906967294216156,0.231531190872192,NaN,0.292409923445983,0.193324059247971,0.228525557518005,0.306065143585205,0.440670745074749,NaN,0.653534003861004,0.196106464051787,0.196106461495776,0.31652993952151,0.5,9.13143157958984e-05,0.000807046890258789,0.000204682350158691,-0.0054376267362386,NaN,2.09893226623535,-0.538790047168732
